SUBJECT|ANT_E|ANT_E_BUCKET|RECALL|TRIAL|DATE|TIME|CONDITION|STIMULUS|PROFILE|SINGLE_OCC|HIGH_SPEED|INTELL_MATCH|INTELL_VISBL|SPEED_VISBL|OCC_VISBL|DECISION_POSSBL|SHOT|ERROR|DECISION_TIME|REACTION_TIME|FEEDBACK_TIME|HIT|MISS|CR|FA
1|1|1|1|1|18042013|11:19:00|1|36.WA(1,1,WA).avi|1,1,1|1|1|1|2500|10500|8100|8100|WAHR|0|15488|7388|15007|1|0|0|0
1|1|1|1|2|18042013|11:19:00|1|05.WA(0,1,WA).avi|0,1,1|0|1|1|3500|10500|10100|10100|FALSCH|0|14773|4673|9463|0|0|1|0
1|1|1|1|3|18042013|11:20:00|1|45.OS(0,0,OS).avi|0,0,1|0|0|1|2500|12500|12000|12000|FALSCH|0|14925|2925|3202|0|0|1|0
1|1|1|1|4|18042013|11:20:00|1|20.WA(0,1,WA).avi|0,1,1|0|1|1|3500|10500|10100|10100|FALSCH|0|13296|3196|2463|0|0|1|0
1|1|1|1|5|18042013|11:21:00|1|41.BV(1,1,BV).avi|1,1,1|1|1|1|2500|11500|11500|11500|WAHR|0|15320|3820|2459|1|0|0|0
1|1|1|1|6|18042013|11:21:00|1|48.OS(1,1,OS).avi|1,1,1|1|1|1|1500|11000|9800|9800|WAHR|0|13309|3509|2561|1|0|0|0
1|1|1|1|7|18042013|11:21:00|1|11.OS(0,1,WA).avi|0,1,0|0|1|0|1500|10000|7300|7300|FALSCH|0|10630|3330|1652|0|0|1|0
1|1|1|1|8|18042013|11:22:00|1|16.WA(0,1,OS).avi|0,1,0|0|1|0|5000|11000|10000|10000|FALSCH|0|13704|3704|3399|0|0|1|0
1|1|1|1|9|18042013|11:22:00|1|36.WA(1,1,WA).avi|1,1,1|1|1|1|2500|10500|8100|8100|WAHR|0|12361|4261|2859|1|0|0|0
1|1|1|1|10|18042013|11:22:00|1|20.WA(0,1,WA).avi|0,1,1|0|1|1|3500|10500|10100|10100|FALSCH|0|12897|2797|2733|0|0|1|0
1|1|1|1|11|18042013|11:22:00|1|33.WA(0,0,WA).avi|0,0,1|0|0|1|4500|11000|9500|9500|FALSCH|0|11640|2140|1743|0|0|1|0
1|1|1|1|12|18042013|11:23:00|1|24.BV(1,0,BV).avi|1,0,1|1|0|1|2500|12000|10699|10699|FALSCH|1|14850|4151|15015|0|1|0|0
1|1|1|1|13|18042013|11:23:00|1|38.BV(0,0,OS).avi|0,0,0|0|0|0|2500|14500|15800|14500|WAHR|1|11732|-2768|3633|0|0|0|1
1|1|1|1|14|18042013|11:24:00|1|13.OS(1,1,WA).avi|1,1,0|1|1|0|1500|11000|9800|11000|WAHR|0|11403|403|5374|1|0|0|0
1|1|1|1|15|18042013|11:24:00|1|08.BV(1,1,WA).avi|1,1,0|1|1|0|2500|11500|11500|11500|WAHR|0|13009|1509|5211|1|0|0|0
1|1|1|1|16|18042013|11:25:00|1|31.WA(0,0,BV).avi|0,0,0|0|0|0|4500|11000|9500|9500|FALSCH|0|11360|1860|2954|0|0|1|0
1|1|1|1|17|18042013|11:25:00|1|29.OS(1,0,OS).avi|1,0,1|1|0|1|1500|12000|7800|7800|FALSCH|1|12706|4906|6624|0|1|0|0
1|1|1|1|18|18042013|11:25:00|1|40.BV(0,0,BV).avi|0,0,1|0|0|1|2500|14500|15800|14500|FALSCH|0|15777|1277|3598|0|0|1|0
1|1|1|1|19|18042013|11:26:00|1|33.WA(0,0,WA).avi|0,0,1|0|0|1|4500|11000|9500|9500|FALSCH|0|11025|1525|1140|0|0|1|0
1|1|1|1|20|18042013|11:26:00|1|15.OS(0,1,OS).avi|0,1,1|0|1|1|1000|9000|7300|7300|FALSCH|0|10049|2749|5881|0|0|1|0
1|1|1|1|21|18042013|11:27:00|1|25.BV(0,1,BV).avi|0,1,1|0|1|1|1500|12000|10300|10300|WAHR|1|12921|2621|3493|0|0|0|1
1|1|1|1|22|18042013|11:27:00|1|23.BV(1,1,OS).avi|1,1,0|1|1|0|2500|11500|11500|11500|WAHR|0|13736|2236|6628|1|0|0|0
1|1|1|1|23|18042013|11:27:00|1|35.WA(1,1,WA).avi|1,1,1|1|1|1|2000|10500|8100|8100|WAHR|0|12057|3957|1242|1|0|0|0
1|1|1|1|24|18042013|11:28:00|1|23.BV(1,1,OS).avi|1,1,0|1|1|0|2500|11500|11500|11500|WAHR|0|12865|1365|1887|1|0|0|0
1|1|1|1|25|18042013|11:28:00|1|03.WA(1,1,BV).avi|1,1,0|1|1|0|2500|10500|8100|10500|WAHR|0|11880|1380|1506|1|0|0|0
1|1|1|1|26|18042013|11:28:00|1|39.BV(0,0,BV).avi|0,0,1|0|0|1|2500|14500|15800|14500|FALSCH|0|17582|3082|2646|0|0|1|0
1|1|1|1|27|18042013|11:29:00|1|38.BV(0,0,OS).avi|0,0,0|0|0|0|2500|14500|15800|14500|FALSCH|0|17345|2845|4606|0|0|1|0
1|1|1|1|28|18042013|11:29:00|1|44.OS(0,0,BV).avi|0,0,0|0|0|0|2500|12500|12000|12000|FALSCH|0|17705|5705|9623|0|0|1|0
1|1|1|1|29|18042013|11:30:00|1|01.WA(0,1,BV).avi|0,1,0|0|1|0|5000|11000|10000|10000|FALSCH|0|11961|1961|2355|0|0|1|0
1|1|1|1|30|18042013|11:30:00|1|02.WA(1,0,BV).avi|1,0,0|1|0|0|3000|13500|10300|13500|WAHR|1|14010|510|6085|0|0|0|1
1|1|1|1|31|18042013|11:30:00|1|43.OS(0,0,WA).avi|0,0,0|0|0|0|2500|12500|12000|12000|WAHR|1|16136|4136|6246|0|0|0|1
1|1|1|1|32|18042013|11:31:00|1|22.BV(1,0,OS).avi|1,0,0|1|0|0|2500|12000|10699|12000|WAHR|1|15552|3552|12288|0|0|0|1
1|1|1|1|33|18042013|11:31:00|1|19.WA(1,0,WA).avi|1,0,1|1|0|1|3000|13500|10300|10300|WAHR|0|17216|6916|2266|1|0|0|0
1|1|1|1|34|18042013|11:32:00|1|31.WA(0,0,BV).avi|0,0,0|0|0|0|4500|11000|9500|9500|FALSCH|0|11033|1533|1886|0|0|1|0
1|1|1|1|35|18042013|11:32:00|1|43.OS(0,0,WA).avi|0,0,0|0|0|0|2500|12500|12000|12000|WAHR|1|14863|2863|1472|0|0|0|1
1|1|1|1|36|18042013|11:32:00|1|25.BV(0,1,BV).avi|0,1,1|0|1|1|1500|12000|10300|10300|FALSCH|0|13417|3117|1714|0|0|1|0
1|1|1|1|37|18042013|11:33:00|1|32.WA(0,0,OS).avi|0,0,0|0|0|0|4500|11000|9500|9500|FALSCH|0|11249|1749|1233|0|0|1|0
1|1|1|1|38|18042013|11:33:00|1|02.WA(1,0,BV).avi|1,0,0|1|0|0|3000|13500|10300|13500|WAHR|1|14761|1261|2646|0|0|0|1
1|1|1|1|39|18042013|11:33:00|1|29.OS(1,0,OS).avi|1,0,1|1|0|1|1500|12000|7800|7800|FALSCH|1|11382|3582|4865|0|1|0|0
1|1|1|1|40|18042013|11:34:00|1|05.WA(0,1,WA).avi|0,1,1|0|1|1|3500|10500|10100|10100|FALSCH|0|11737|1637|1309|0|0|1|0
1|1|1|1|41|18042013|11:34:00|1|04.WA(1,0,WA).avi|1,0,1|1|0|1|3000|13500|10300|10300|FALSCH|1|14217|3917|1820|0|1|0|0
1|1|1|1|42|18042013|11:34:00|1|44.OS(0,0,BV).avi|0,0,0|0|0|0|2500|12500|12000|12000|WAHR|1|16377|4377|3241|0|0|0|1
1|1|1|1|43|18042013|11:35:00|1|10.BV(0,1,BV).avi|0,1,1|0|1|1|1500|12000|10300|10300|FALSCH|0|13441|3141|1806|0|0|1|0
1|1|1|1|44|18042013|11:35:00|1|44.OS(0,0,BV).avi|0,0,0|0|0|0|2500|12500|12000|12000|WAHR|1|15577|3577|1469|0|0|0|1
1|1|1|1|45|18042013|11:35:00|1|06.BV(0,1,WA).avi|0,1,0|0|1|0|3000|10500|10199|10199|FALSCH|0|11617|1418|982|0|0|1|0
1|1|1|1|46|18042013|11:36:00|1|09.BV(1,0,BV).avi|1,0,1|1|0|1|2500|12000|10699|10699|FALSCH|1|14426|3727|6029|0|1|0|0
1|1|1|1|47|18042013|11:36:00|1|10.BV(0,1,BV).avi|0,1,1|0|1|1|1500|12000|10300|10300|WAHR|1|13265|2965|1267|0|0|0|1
1|1|1|1|48|18042013|11:37:00|1|24.BV(1,0,BV).avi|1,0,1|1|0|1|2500|12000|10699|10699|FALSCH|1|15944|5245|13950|0|1|0|0
1|1|1|1|49|18042013|11:37:00|1|01.WA(0,1,BV).avi|0,1,0|0|1|0|5000|11000|10000|10000|FALSCH|0|12745|2745|1213|0|0|1|0
1|1|1|1|50|18042013|11:37:00|1|02.WA(1,0,BV).avi|1,0,0|1|0|0|3000|13500|10300|13500|WAHR|1|13953|453|2110|0|0|0|1
1|1|1|1|51|18042013|11:38:00|1|17.WA(1,0,OS).avi|1,0,0|1|0|0|3000|13500|10300|13500|FALSCH|0|14176|676|921|0|0|1|0
1|1|1|1|52|18042013|11:38:00|1|10.BV(0,1,BV).avi|0,1,1|0|1|1|1500|12000|10300|10300|FALSCH|0|12033|1733|1716|0|0|1|0
1|1|1|1|53|18042013|11:38:00|1|17.WA(1,0,OS).avi|1,0,0|1|0|0|3000|13500|10300|13500|WAHR|1|13958|458|9411|0|0|0|1
1|1|1|1|54|18042013|11:39:00|1|22.BV(1,0,OS).avi|1,0,0|1|0|0|2500|12000|10699|12000|WAHR|1|12569|569|5373|0|0|0|1
1|1|1|1|55|18042013|11:39:00|1|19.WA(1,0,WA).avi|1,0,1|1|0|1|3000|13500|10300|10300|FALSCH|1|15593|5293|15002|0|1|0|0
1|1|1|1|56|18042013|11:40:00|1|30.OS(0,1,OS).avi|0,1,1|0|1|1|1000|9000|7300|7300|FALSCH|0|9609|2309|2481|0|0|1|0
1|1|1|1|57|18042013|11:40:00|1|27.OS(1,0,BV).avi|1,0,0|1|0|0|1500|12000|7800|12000|WAHR|1|10329|-1671|9193|0|0|0|1
1|1|1|1|58|18042013|11:41:00|1|32.WA(0,0,OS).avi|0,0,0|0|0|0|4500|11000|9500|9500|FALSCH|0|11009|1509|1715|0|0|1|0
1|1|1|1|59|18042013|11:41:00|1|04.WA(1,0,WA).avi|1,0,1|1|0|1|3000|13500|10300|10300|FALSCH|1|14009|3709|3759|0|1|0|0
1|1|1|1|60|18042013|11:41:00|1|37.BV(0,0,WA).avi|0,0,0|0|0|0|2500|14500|15800|14500|FALSCH|0|17577|3077|1508|0|0|1|0
1|1|1|1|61|18042013|11:42:00|1|32.WA(0,0,OS).avi|0,0,0|0|0|0|4500|11000|9500|9500|FALSCH|0|11208|1708|1009|0|0|1|0
1|1|1|1|62|18042013|11:42:00|1|15.OS(0,1,OS).avi|0,1,1|0|1|1|1000|9000|7300|7300|FALSCH|0|9481|2181|822|0|0|1|0
1|1|1|1|63|18042013|11:42:00|1|31.WA(0,0,BV).avi|0,0,0|0|0|0|4500|11000|9500|9500|FALSCH|0|10953|1453|1040|0|0|1|0
1|1|1|1|64|18042013|11:42:00|1|07.BV(1,0,WA).avi|1,0,0|1|0|0|2500|12000|10699|12000|FALSCH|0|14481|2481|1322|0|0|1|0
1|1|1|1|65|18042013|11:43:00|1|24.BV(1,0,BV).avi|1,0,1|1|0|1|2500|12000|10699|10699|WAHR|0|12041|1342|1321|1|0|0|0
1|1|1|1|66|18042013|11:43:00|1|29.OS(1,0,OS).avi|1,0,1|1|0|1|1500|12000|7800|7800|WAHR|0|11154|3354|1327|1|0|0|0
1|1|1|1|67|18042013|11:43:00|1|38.BV(0,0,OS).avi|0,0,0|0|0|0|2500|14500|15800|14500|FALSCH|0|16609|2109|929|0|0|1|0
1|1|1|1|68|18042013|11:44:00|1|25.BV(0,1,BV).avi|0,1,1|0|1|1|1500|12000|10300|10300|FALSCH|0|11473|1173|1696|0|0|1|0
1|1|1|1|69|18042013|11:44:00|1|15.OS(0,1,OS).avi|0,1,1|0|1|1|1000|9000|7300|7300|FALSCH|0|8649|1349|907|0|0|1|0
1|1|1|1|70|18042013|11:44:00|1|12.OS(1,0,WA).avi|1,0,0|1|0|0|1500|12000|7800|12000|FALSCH|0|11001|-999|1537|0|0|1|0
1|1|1|1|71|18042013|11:44:00|1|14.OS(1,0,OS).avi|1,0,1|1|0|1|1500|12000|7800|7800|WAHR|0|9273|1473|1087|1|0|0|0
1|1|1|1|72|18042013|11:45:00|1|19.WA(1,0,WA).avi|1,0,1|1|0|1|3000|13500|10300|10300|FALSCH|1|14599|4299|1121|0|1|0|0
1|1|1|1|73|18042013|11:45:00|1|02.WA(1,0,BV).avi|1,0,0|1|0|0|3000|13500|10300|13500|WAHR|1|14017|517|1361|0|0|0|1
1|1|1|1|74|18042013|11:45:00|1|19.WA(1,0,WA).avi|1,0,1|1|0|1|3000|13500|10300|10300|WAHR|0|12601|2301|1177|1|0|0|0
1|1|1|1|75|18042013|11:46:00|1|14.OS(1,0,OS).avi|1,0,1|1|0|1|1500|12000|7800|7800|WAHR|0|9785|1985|1203|1|0|0|0
1|1|1|1|76|18042013|11:46:00|1|17.WA(1,0,OS).avi|1,0,0|1|0|0|3000|13500|10300|13500|FALSCH|0|13240|-260|754|0|0|1|0
1|1|1|1|77|18042013|11:46:00|1|12.OS(1,0,WA).avi|1,0,0|1|0|0|1500|12000|7800|12000|FALSCH|0|10179|-1821|1215|0|0|1|0
1|1|1|1|78|18042013|11:46:00|1|02.WA(1,0,BV).avi|1,0,0|1|0|0|3000|13500|10300|13500|FALSCH|0|12345|-1155|1629|0|0|1|0
1|1|1|1|79|18042013|11:47:00|1|19.WA(1,0,WA).avi|1,0,1|1|0|1|3000|13500|10300|10300|WAHR|0|12145|1845|1174|1|0|0|0
1|1|1|1|80|18042013|11:47:00|1|29.OS(1,0,OS).avi|1,0,1|1|0|1|1500|12000|7800|7800|WAHR|0|11302|3502|1511|1|0|0|0
1|1|1|1|81|18042013|11:47:00|1|17.WA(1,0,OS).avi|1,0,0|1|0|0|3000|13500|10300|13500|FALSCH|0|13889|389|1562|0|0|1|0
1|1|1|1|82|18042013|11:48:00|1|14.OS(1,0,OS).avi|1,0,1|1|0|1|1500|12000|7800|7800|WAHR|0|10417|2617|1208|1|0|0|0
1|1|1|1|83|18042013|11:48:00|1|17.WA(1,0,OS).avi|1,0,0|1|0|0|3000|13500|10300|13500|FALSCH|0|14577|1077|945|0|0|1|0
2|1|1|1|1|19042013|11:39:00|2|18.WA(1,1,OS).avi|1,1,0|1|1|0|2500|10500|8100|10500|WAHR|0|15752|5252|15017|1|0|0|0
2|1|1|1|2|19042013|11:39:00|2|05.WA(0,1,WA).avi|0,1,1|0|1|1|3500|10500|10100|10100|FALSCH|0|16082|5982|6322|0|0|1|0
2|1|1|1|3|19042013|11:40:00|2|33.WA(0,0,WA).avi|0,0,1|0|0|1|4500|11000|9500|9500|FALSCH|0|16359|6859|5711|0|0|1|0
2|1|1|1|4|19042013|11:40:00|2|14.OS(1,0,OS).avi|1,0,1|1|0|1|1500|12000|7800|7800|FALSCH|1|16468|8668|15007|0|1|0|0
2|1|1|1|5|19042013|11:41:00|2|03.WA(1,1,BV).avi|1,1,0|1|1|0|2500|10500|8100|10500|WAHR|0|14454|3954|5356|1|0|0|0
2|1|1|1|6|19042013|11:41:00|2|17.WA(1,0,OS).avi|1,0,0|1|0|0|3000|13500|10300|13500|FALSCH|0|20944|7444|3457|0|0|1|0
2|1|1|1|7|19042013|11:42:00|2|36.WA(1,1,WA).avi|1,1,1|1|1|1|2500|10500|8100|8100|WAHR|0|13353|5253|3239|1|0|0|0
2|1|1|1|8|19042013|11:42:00|2|18.WA(1,1,OS).avi|1,1,0|1|1|0|2500|10500|8100|10500|WAHR|0|14563|4063|9930|1|0|0|0
2|1|1|1|9|19042013|11:43:00|2|34.WA(0,0,WA).avi|0,0,1|0|0|1|4500|11000|9500|9500|FALSCH|0|12506|3006|3279|0|0|1|0
2|1|1|1|10|19042013|11:43:00|2|20.WA(0,1,WA).avi|0,1,1|0|1|1|3500|10500|10100|10100|FALSCH|0|13582|3482|2431|0|0|1|0
2|1|1|1|11|19042013|11:43:00|2|12.OS(1,0,WA).avi|1,0,0|1|0|0|1500|12000|7800|12000|WAHR|1|15571|3571|15015|0|0|0|1
2|1|1|1|12|19042013|11:44:00|2|45.OS(0,0,OS).avi|0,0,1|0|0|1|2500|12500|12000|12000|WAHR|1|17936|5936|5621|0|0|0|1
2|1|1|1|13|19042013|11:44:00|2|34.WA(0,0,WA).avi|0,0,1|0|0|1|4500|11000|9500|9500|FALSCH|0|15796|6296|2690|0|0|1|0
2|1|1|1|14|19042013|11:45:00|2|43.OS(0,0,WA).avi|0,0,0|0|0|0|2500|12500|12000|12000|FALSCH|0|22783|10783|2312|0|0|1|0
2|1|1|1|15|19042013|11:45:00|2|48.OS(1,1,OS).avi|1,1,1|1|1|1|1500|11000|9800|9800|WAHR|0|15229|5429|2285|1|0|0|0
2|1|1|1|16|19042013|11:46:00|2|38.BV(0,0,OS).avi|0,0,0|0|0|0|2500|14500|15800|14500|FALSCH|0|19010|4510|7434|0|0|1|0
2|1|1|1|17|19042013|11:46:00|2|05.WA(0,1,WA).avi|0,1,1|0|1|1|3500|10500|10100|10100|FALSCH|0|13813|3713|9671|0|0|1|0
2|1|1|1|18|19042013|11:47:00|2|43.OS(0,0,WA).avi|0,0,0|0|0|0|2500|12500|12000|12000|FALSCH|0|23400|11400|2735|0|0|1|0
2|1|1|1|19|19042013|11:47:00|2|20.WA(0,1,WA).avi|0,1,1|0|1|1|3500|10500|10100|10100|FALSCH|0|13784|3684|1119|0|0|1|0
2|1|1|1|20|19042013|11:48:00|2|02.WA(1,0,BV).avi|1,0,0|1|0|0|3000|13500|10300|13500|FALSCH|0|27267|13767|2265|0|0|1|0
2|1|1|1|21|19042013|11:48:00|2|47.OS(1,1,OS).avi|1,1,1|1|1|1|1500|11000|9800|9800|WAHR|0|14461|4661|2568|1|0|0|0
2|1|1|1|22|19042013|11:48:00|2|05.WA(0,1,WA).avi|0,1,1|0|1|1|3500|10500|10100|10100|FALSCH|0|14949|4849|3428|0|0|1|0
2|1|1|1|23|19042013|11:49:00|2|12.OS(1,0,WA).avi|1,0,0|1|0|0|1500|12000|7800|12000|FALSCH|0|24572|12572|3394|0|0|1|0
2|1|1|1|24|19042013|11:49:00|2|11.OS(0,1,WA).avi|0,1,0|0|1|0|1500|10000|7300|7300|FALSCH|0|12147|4847|1633|0|0|1|0
2|1|1|1|25|19042013|11:50:00|2|29.OS(1,0,OS).avi|1,0,1|1|0|1|1500|12000|7800|7800|WAHR|0|23370|15570|3634|1|0|0|0
2|1|1|1|26|19042013|11:50:00|2|24.BV(1,0,BV).avi|1,0,1|1|0|1|2500|12000|10699|10699|WAHR|0|21674|10975|2683|1|0|0|0
2|1|1|1|27|19042013|11:50:00|2|06.BV(0,1,WA).avi|0,1,0|0|1|0|3000|10500|10199|10199|FALSCH|0|13120|2921|2625|0|0|1|0
2|1|1|1|28|19042013|11:51:00|2|16.WA(0,1,OS).avi|0,1,0|0|1|0|5000|11000|10000|10000|FALSCH|0|14904|4904|3177|0|0|1|0
2|1|1|1|29|19042013|11:51:00|2|41.BV(1,1,BV).avi|1,1,1|1|1|1|2500|11500|11500|11500|WAHR|0|16309|4809|2385|1|0|0|0
2|1|1|1|30|19042013|11:52:00|2|18.WA(1,1,OS).avi|1,1,0|1|1|0|2500|10500|8100|10500|WAHR|0|14118|3618|3030|1|0|0|0
2|1|1|1|31|19042013|11:52:00|2|22.BV(1,0,OS).avi|1,0,0|1|0|0|2500|12000|10699|12000|FALSCH|0|21789|9789|2311|0|0|1|0
2|1|1|1|32|19042013|11:52:00|2|38.BV(0,0,OS).avi|0,0,0|0|0|0|2500|14500|15800|14500|FALSCH|0|18097|3597|2747|0|0|1|0
2|1|1|1|33|19042013|11:53:00|2|41.BV(1,1,BV).avi|1,1,1|1|1|1|2500|11500|11500|11500|WAHR|0|15608|4108|1702|1|0|0|0
2|1|1|1|34|19042013|11:53:00|2|46.OS(0,0,OS).avi|0,0,1|0|0|1|2500|12500|12000|12000|FALSCH|0|27945|15945|2808|0|0|1|0
2|1|1|1|35|19042013|11:54:00|2|23.BV(1,1,OS).avi|1,1,0|1|1|0|2500|11500|11500|11500|WAHR|0|15862|4362|1888|1|0|0|0
2|1|1|1|36|19042013|11:54:00|2|29.OS(1,0,OS).avi|1,0,1|1|0|1|1500|12000|7800|7800|WAHR|0|25185|17385|2353|1|0|0|0
2|1|1|1|37|19042013|11:55:00|2|17.WA(1,0,OS).avi|1,0,0|1|0|0|3000|13500|10300|13500|FALSCH|0|25738|12238|1232|0|0|1|0
2|1|1|1|38|19042013|11:55:00|2|22.BV(1,0,OS).avi|1,0,0|1|0|0|2500|12000|10699|12000|FALSCH|0|20697|8697|2214|0|0|1|0
2|1|1|1|39|19042013|11:56:00|2|19.WA(1,0,WA).avi|1,0,1|1|0|1|3000|13500|10300|10300|WAHR|0|25571|15271|1807|1|0|0|0
2|1|1|1|40|19042013|11:56:00|2|26.OS(0,1,BV).avi|0,1,0|0|1|0|1500|10000|7300|7300|FALSCH|0|11251|3951|2060|0|0|1|0
2|1|1|1|41|19042013|11:56:00|2|31.WA(0,0,BV).avi|0,0,0|0|0|0|4500|11000|9500|9500|FALSCH|0|16023|6523|2970|0|0|1|0
2|1|1|1|42|19042013|11:57:00|2|06.BV(0,1,WA).avi|0,1,0|0|1|0|3000|10500|10199|10199|FALSCH|0|13685|3486|1947|0|0|1|0
2|1|1|1|43|19042013|11:57:00|2|40.BV(0,0,BV).avi|0,0,1|0|0|1|2500|14500|15800|14500|FALSCH|0|18799|4299|2039|0|0|1|0
2|1|1|1|44|19042013|11:58:00|2|09.BV(1,0,BV).avi|1,0,1|1|0|1|2500|12000|10699|10699|WAHR|0|20633|9934|1839|1|0|0|0
2|1|1|1|45|19042013|11:58:00|2|39.BV(0,0,BV).avi|0,0,1|0|0|1|2500|14500|15800|14500|FALSCH|0|19795|5295|2088|0|0|1|0
2|1|1|1|46|19042013|11:59:00|2|46.OS(0,0,OS).avi|0,0,1|0|0|1|2500|12500|12000|12000|FALSCH|0|28215|16215|2360|0|0|1|0
4|4|3|1|1|19042013|13:19:00|1|03.WA(1,1,BV).avi|1,1,0|1|1|0|2500|10500|8100|10500|FALSCH|1|15262|4762|8992|0|1|0|0
4|4|3|1|2|19042013|13:19:00|1|18.WA(1,1,OS).avi|1,1,0|1|1|0|2500|10500|8100|10500|FALSCH|1|13501|3001|4485|0|1|0|0
4|4|3|1|3|19042013|13:20:00|1|15.OS(0,1,OS).avi|0,1,1|0|1|1|1000|9000|7300|7300|WAHR|1|6750|-550|3380|0|0|0|1
4|4|3|1|4|19042013|13:20:00|1|20.WA(0,1,WA).avi|0,1,1|0|1|1|3500|10500|10100|10100|FALSCH|0|12339|2239|2364|0|0|1|0
4|4|3|1|5|19042013|13:20:00|1|39.BV(0,0,BV).avi|0,0,1|0|0|1|2500|14500|15800|14500|FALSCH|0|16666|2166|1741|0|0|1|0
4|4|3|1|6|19042013|13:21:00|1|12.OS(1,0,WA).avi|1,0,0|1|0|0|1500|12000|7800|12000|FALSCH|0|12497|497|2085|0|0|1|0
4|4|3|1|7|19042013|13:21:00|1|07.BV(1,0,WA).avi|1,0,0|1|0|0|2500|12000|10699|12000|FALSCH|0|13705|1705|2476|0|0|1|0
4|4|3|1|8|19042013|13:21:00|1|08.BV(1,1,WA).avi|1,1,0|1|1|0|2500|11500|11500|11500|WAHR|0|14074|2574|2372|1|0|0|0
4|4|3|1|9|19042013|13:22:00|1|28.OS(1,1,BV).avi|1,1,0|1|1|0|1500|11000|9800|11000|WAHR|0|13535|2535|1151|1|0|0|0
4|4|3|1|10|19042013|13:22:00|1|44.OS(0,0,BV).avi|0,0,0|0|0|0|2500|12500|12000|12000|FALSCH|0|17334|5334|3148|0|0|1|0
4|4|3|1|11|19042013|13:22:00|1|19.WA(1,0,WA).avi|1,0,1|1|0|1|3000|13500|10300|10300|FALSCH|1|14930|4630|4516|0|1|0|0
4|4|3|1|12|19042013|13:23:00|1|24.BV(1,0,BV).avi|1,0,1|1|0|1|2500|12000|10699|10699|FALSCH|1|17705|7006|4899|0|1|0|0
4|4|3|1|13|19042013|13:23:00|1|42.BV(1,1,BV).avi|1,1,1|1|1|1|2500|11500|11500|11500|WAHR|0|13816|2316|1125|1|0|0|0
4|4|3|1|14|19042013|13:24:00|1|39.BV(0,0,BV).avi|0,0,1|0|0|1|2500|14500|15800|14500|FALSCH|0|16658|2158|1095|0|0|1|0
4|4|3|1|15|19042013|13:24:00|1|14.OS(1,0,OS).avi|1,0,1|1|0|1|1500|12000|7800|7800|WAHR|0|22689|14889|984|1|0|0|0
4|4|3|1|16|19042013|13:25:00|1|46.OS(0,0,OS).avi|0,0,1|0|0|1|2500|12500|12000|12000|FALSCH|0|20856|8856|842|0|0|1|0
4|4|3|1|17|19042013|13:25:00|1|21.BV(0,1,OS).avi|0,1,0|0|1|0|3000|10500|10199|10199|FALSCH|0|11978|1779|1036|0|0|1|0
4|4|3|1|18|19042013|13:25:00|1|06.BV(0,1,WA).avi|0,1,0|0|1|0|3000|10500|10199|10199|FALSCH|0|11324|1125|783|0|0|1|0
4|4|3|1|19|19042013|13:25:00|1|13.OS(1,1,WA).avi|1,1,0|1|1|0|1500|11000|9800|11000|WAHR|0|13105|2105|909|1|0|0|0
4|4|3|1|20|19042013|13:26:00|1|33.WA(0,0,WA).avi|0,0,1|0|0|1|4500|11000|9500|9500|FALSCH|0|10465|965|860|0|0|1|0
4|4|3|1|21|19042013|13:26:00|1|38.BV(0,0,OS).avi|0,0,0|0|0|0|2500|14500|15800|14500|FALSCH|0|14353|-147|1104|0|0|1|0
4|4|3|1|22|19042013|13:26:00|1|42.BV(1,1,BV).avi|1,1,1|1|1|1|2500|11500|11500|11500|WAHR|0|13305|1805|805|1|0|0|0
4|4|3|1|23|19042013|13:27:00|1|47.OS(1,1,OS).avi|1,1,1|1|1|1|1500|11000|9800|9800|WAHR|0|13185|3385|922|1|0|0|0
4|4|3|1|24|19042013|13:27:00|1|18.WA(1,1,OS).avi|1,1,0|1|1|0|2500|10500|8100|10500|FALSCH|1|12409|1909|1074|0|1|0|0
4|4|3|1|25|19042013|13:27:00|1|46.OS(0,0,OS).avi|0,0,1|0|0|1|2500|12500|12000|12000|FALSCH|0|19562|7562|892|0|0|1|0
4|4|3|1|26|19042013|13:28:00|1|37.BV(0,0,WA).avi|0,0,0|0|0|0|2500|14500|15800|14500|FALSCH|0|16680|2180|833|0|0|1|0
4|4|3|1|27|19042013|13:28:00|1|02.WA(1,0,BV).avi|1,0,0|1|0|0|3000|13500|10300|13500|FALSCH|0|19297|5797|1629|0|0|1|0
4|4|3|1|28|19042013|13:28:00|1|27.OS(1,0,BV).avi|1,0,0|1|0|0|1500|12000|7800|12000|FALSCH|0|16745|4745|799|0|0|1|0
4|4|3|1|29|19042013|13:29:00|1|30.OS(0,1,OS).avi|0,1,1|0|1|1|1000|9000|7300|7300|FALSCH|0|10265|2965|738|0|0|1|0
4|4|3|1|30|19042013|13:29:00|1|02.WA(1,0,BV).avi|1,0,0|1|0|0|3000|13500|10300|13500|FALSCH|0|16737|3237|1266|0|0|1|0
4|4|3|1|31|19042013|13:29:00|1|11.OS(0,1,WA).avi|0,1,0|0|1|0|1500|10000|7300|7300|FALSCH|0|9369|2069|856|0|0|1|0
4|4|3|1|32|19042013|13:29:00|1|15.OS(0,1,OS).avi|0,1,1|0|1|1|1000|9000|7300|7300|FALSCH|0|9393|2093|910|0|0|1|0
4|4|3|1|33|19042013|13:30:00|1|44.OS(0,0,BV).avi|0,0,0|0|0|0|2500|12500|12000|12000|FALSCH|0|16777|4777|1172|0|0|1|0
4|4|3|1|34|19042013|13:30:00|1|23.BV(1,1,OS).avi|1,1,0|1|1|0|2500|11500|11500|11500|WAHR|0|13665|2165|1458|1|0|0|0
4|4|3|1|35|19042013|13:30:00|1|44.OS(0,0,BV).avi|0,0,0|0|0|0|2500|12500|12000|12000|FALSCH|0|13993|1993|902|0|0|1|0
4|4|3|1|36|19042013|13:31:00|1|04.WA(1,0,WA).avi|1,0,1|1|0|1|3000|13500|10300|10300|WAHR|0|21513|11213|1615|1|0|0|0
4|4|3|1|37|19042013|13:31:00|1|29.OS(1,0,OS).avi|1,0,1|1|0|1|1500|12000|7800|7800|WAHR|0|19449|11649|893|1|0|0|0
4|4|3|1|38|19042013|13:32:00|1|25.BV(0,1,BV).avi|0,1,1|0|1|1|1500|12000|10300|10300|FALSCH|0|11025|725|714|0|0|1|0
4|4|3|1|39|19042013|13:32:00|1|15.OS(0,1,OS).avi|0,1,1|0|1|1|1000|9000|7300|7300|FALSCH|0|8193|893|873|0|0|1|0
4|4|3|1|40|19042013|13:32:00|1|23.BV(1,1,OS).avi|1,1,0|1|1|0|2500|11500|11500|11500|WAHR|0|13466|1966|1139|1|0|0|0
4|4|3|1|41|19042013|13:32:00|1|08.BV(1,1,WA).avi|1,1,0|1|1|0|2500|11500|11500|11500|WAHR|0|12864|1364|981|1|0|0|0
4|4|3|1|42|19042013|13:33:00|1|48.OS(1,1,OS).avi|1,1,1|1|1|1|1500|11000|9800|9800|WAHR|0|12442|2642|820|1|0|0|0
4|4|3|1|43|19042013|13:33:00|1|26.OS(0,1,BV).avi|0,1,0|0|1|0|1500|10000|7300|7300|FALSCH|0|8258|958|1030|0|0|1|0
4|4|3|1|44|19042013|13:33:00|1|03.WA(1,1,BV).avi|1,1,0|1|1|0|2500|10500|8100|10500|WAHR|0|11450|950|740|1|0|0|0
4|4|3|1|45|19042013|13:34:00|1|08.BV(1,1,WA).avi|1,1,0|1|1|0|2500|11500|11500|11500|WAHR|0|13553|2053|999|1|0|0|0
4|4|3|1|46|19042013|13:34:00|1|16.WA(0,1,OS).avi|0,1,0|0|1|0|5000|11000|10000|10000|FALSCH|0|13158|3158|805|0|0|1|0
4|4|3|1|47|19042013|13:34:00|1|04.WA(1,0,WA).avi|1,0,1|1|0|1|3000|13500|10300|10300|WAHR|0|16337|6037|1106|1|0|0|0
4|4|3|1|48|19042013|13:34:00|1|35.WA(1,1,WA).avi|1,1,1|1|1|1|2000|10500|8100|8100|WAHR|0|12014|3914|980|1|0|0|0
4|4|3|1|49|19042013|13:35:00|1|29.OS(1,0,OS).avi|1,0,1|1|0|1|1500|12000|7800|7800|WAHR|0|18361|10561|769|1|0|0|0
5|1|1|1|1|19042013|13:25:00|2|29.OS(1,0,OS).avi|1,0,1|1|0|1|1500|12000|7800|7800|FALSCH|1|31070|23270|15015|0|1|0|0
5|1|1|1|2|19042013|13:26:00|2|12.OS(1,0,WA).avi|1,0,0|1|0|0|1500|12000|7800|12000|FALSCH|0|24794|12794|15019|0|0|1|0
5|1|1|1|3|19042013|13:27:00|2|48.OS(1,1,OS).avi|1,1,1|1|1|1|1500|11000|9800|9800|WAHR|0|12542|2742|15025|1|0|0|0
5|1|1|1|4|19042013|13:27:00|2|24.BV(1,0,BV).avi|1,0,1|1|0|1|2500|12000|10699|10699|WAHR|0|18045|7346|15023|1|0|0|0
5|1|1|1|5|19042013|13:28:00|2|42.BV(1,1,BV).avi|1,1,1|1|1|1|2500|11500|11500|11500|WAHR|0|12847|1347|15019|1|0|0|0
5|1|1|1|6|19042013|13:28:00|2|28.OS(1,1,BV).avi|1,1,0|1|1|0|1500|11000|9800|11000|WAHR|0|12008|1008|15015|1|0|0|0
5|1|1|1|7|19042013|13:29:00|2|19.WA(1,0,WA).avi|1,0,1|1|0|1|3000|13500|10300|10300|WAHR|0|18351|8051|12421|1|0|0|0
5|1|1|1|8|19042013|13:29:00|2|14.OS(1,0,OS).avi|1,0,1|1|0|1|1500|12000|7800|7800|WAHR|0|15279|7479|1810|1|0|0|0
5|1|1|1|9|19042013|13:30:00|2|32.WA(0,0,OS).avi|0,0,0|0|0|0|4500|11000|9500|9500|FALSCH|0|10698|1198|2202|0|0|1|0
5|1|1|1|10|19042013|13:30:00|2|38.BV(0,0,OS).avi|0,0,0|0|0|0|2500|14500|15800|14500|FALSCH|0|16639|2139|1618|0|0|1|0
5|1|1|1|11|19042013|13:30:00|2|10.BV(0,1,BV).avi|0,1,1|0|1|1|1500|12000|10300|10300|FALSCH|0|11257|957|1442|0|0|1|0
5|1|1|1|12|19042013|13:31:00|2|09.BV(1,0,BV).avi|1,0,1|1|0|1|2500|12000|10699|10699|WAHR|0|13567|2868|1765|1|0|0|0
5|1|1|1|13|19042013|13:31:00|2|46.OS(0,0,OS).avi|0,0,1|0|0|1|2500|12500|12000|12000|WAHR|1|15047|3047|5737|0|0|0|1
5|1|1|1|14|19042013|13:31:00|2|37.BV(0,0,WA).avi|0,0,0|0|0|0|2500|14500|15800|14500|FALSCH|0|16809|2309|2171|0|0|1|0
5|1|1|1|15|19042013|13:32:00|2|22.BV(1,0,OS).avi|1,0,0|1|0|0|2500|12000|10699|12000|WAHR|1|15486|3486|15006|0|0|0|1
5|1|1|1|16|19042013|13:32:00|2|27.OS(1,0,BV).avi|1,0,0|1|0|0|1500|12000|7800|12000|FALSCH|0|14334|2334|1146|0|0|1|0
5|1|1|1|17|19042013|13:33:00|2|37.BV(0,0,WA).avi|0,0,0|0|0|0|2500|14500|15800|14500|FALSCH|0|16839|2339|2539|0|0|1|0
5|1|1|1|18|19042013|13:33:00|2|32.WA(0,0,OS).avi|0,0,0|0|0|0|4500|11000|9500|9500|FALSCH|0|10447|947|1642|0|0|1|0
5|1|1|1|19|19042013|13:33:00|2|12.OS(1,0,WA).avi|1,0,0|1|0|0|1500|12000|7800|12000|FALSCH|0|13335|1335|1245|0|0|1|0
5|1|1|1|20|19042013|13:34:00|2|48.OS(1,1,OS).avi|1,1,1|1|1|1|1500|11000|9800|9800|WAHR|0|11808|2008|987|1|0|0|0
5|1|1|1|21|19042013|13:34:00|2|12.OS(1,0,WA).avi|1,0,0|1|0|0|1500|12000|7800|12000|FALSCH|0|13998|1998|1223|0|0|1|0
5|1|1|1|22|19042013|13:34:00|2|23.BV(1,1,OS).avi|1,1,0|1|1|0|2500|11500|11500|11500|WAHR|0|13807|2307|873|1|0|0|0
5|1|1|1|23|19042013|13:34:00|2|18.WA(1,1,OS).avi|1,1,0|1|1|0|2500|10500|8100|10500|WAHR|0|12647|2147|1360|1|0|0|0
5|1|1|1|24|19042013|13:35:00|2|01.WA(0,1,BV).avi|0,1,0|0|1|0|5000|11000|10000|10000|FALSCH|0|11029|1029|1039|0|0|1|0
5|1|1|1|25|19042013|13:35:00|2|46.OS(0,0,OS).avi|0,0,1|0|0|1|2500|12500|12000|12000|WAHR|1|17670|5670|2650|0|0|0|1
5|1|1|1|26|19042013|13:36:00|2|29.OS(1,0,OS).avi|1,0,1|1|0|1|1500|12000|7800|7800|WAHR|0|24719|16919|1137|1|0|0|0
5|1|1|1|27|19042013|13:36:00|2|17.WA(1,0,OS).avi|1,0,0|1|0|0|3000|13500|10300|13500|FALSCH|0|16655|3155|819|0|0|1|0
5|1|1|1|28|19042013|13:36:00|2|39.BV(0,0,BV).avi|0,0,1|0|0|1|2500|14500|15800|14500|FALSCH|0|16903|2403|818|0|0|1|0
5|1|1|1|29|19042013|13:37:00|2|46.OS(0,0,OS).avi|0,0,1|0|0|1|2500|12500|12000|12000|FALSCH|0|21879|9879|1250|0|0|1|0
5|1|1|1|30|19042013|13:37:00|2|36.WA(1,1,WA).avi|1,1,1|1|1|1|2500|10500|8100|8100|WAHR|0|11414|3314|1027|1|0|0|0
5|1|1|1|31|19042013|13:37:00|2|34.WA(0,0,WA).avi|0,0,1|0|0|1|4500|11000|9500|9500|FALSCH|0|10199|699|859|0|0|1|0
5|1|1|1|32|19042013|13:38:00|2|42.BV(1,1,BV).avi|1,1,1|1|1|1|2500|11500|11500|11500|WAHR|0|13111|1611|1096|1|0|0|0
5|1|1|1|33|19042013|13:38:00|2|39.BV(0,0,BV).avi|0,0,1|0|0|1|2500|14500|15800|14500|FALSCH|0|16901|2401|995|0|0|1|0
5|1|1|1|34|19042013|13:38:00|2|03.WA(1,1,BV).avi|1,1,0|1|1|0|2500|10500|8100|10500|WAHR|0|13135|2635|947|1|0|0|0
5|1|1|1|35|19042013|13:39:00|2|27.OS(1,0,BV).avi|1,0,0|1|0|0|1500|12000|7800|12000|FALSCH|0|14727|2727|867|0|0|1|0
5|1|1|1|36|19042013|13:39:00|2|28.OS(1,1,BV).avi|1,1,0|1|1|0|1500|11000|9800|11000|WAHR|0|13327|2327|1079|1|0|0|0
5|1|1|1|37|19042013|13:39:00|2|05.WA(0,1,WA).avi|0,1,1|0|1|1|3500|10500|10100|10100|FALSCH|0|10903|803|798|0|0|1|0
5|1|1|1|38|19042013|13:39:00|2|15.OS(0,1,OS).avi|0,1,1|0|1|1|1000|9000|7300|7300|FALSCH|0|8480|1180|741|0|0|1|0
5|1|1|1|39|19042013|13:40:00|2|10.BV(0,1,BV).avi|0,1,1|0|1|1|1500|12000|10300|10300|FALSCH|0|11023|723|948|0|0|1|0
5|1|1|1|40|19042013|13:40:00|2|05.WA(0,1,WA).avi|0,1,1|0|1|1|3500|10500|10100|10100|FALSCH|0|9895|-205|810|0|0|1|0
5|1|1|1|41|19042013|13:40:00|2|39.BV(0,0,BV).avi|0,0,1|0|0|1|2500|14500|15800|14500|FALSCH|0|16559|2059|974|0|0|1|0
5|1|1|1|42|19042013|13:40:00|2|26.OS(0,1,BV).avi|0,1,0|0|1|0|1500|10000|7300|7300|FALSCH|0|8603|1303|1594|0|0|1|0
5|1|1|1|43|19042013|13:41:00|2|21.BV(0,1,OS).avi|0,1,0|0|1|0|3000|10500|10199|10199|FALSCH|0|10519|320|838|0|0|1|0
5|1|1|1|44|19042013|13:41:00|2|26.OS(0,1,BV).avi|0,1,0|0|1|0|1500|10000|7300|7300|FALSCH|0|8334|1034|858|0|0|1|0
5|1|1|1|45|19042013|13:41:00|2|06.BV(0,1,WA).avi|0,1,0|0|1|0|3000|10500|10199|10199|FALSCH|0|7999|-2200|764|0|0|1|0
6|1|1|1|1|19042013|13:59:00|3|06.BV(0,1,WA).avi|0,1,0|0|1|0|3000|10500|10199|10199|WAHR|1|16633|6434|15022|0|0|0|1
6|1|1|1|2|19042013|13:59:00|3|37.BV(0,0,WA).avi|0,0,0|0|0|0|2500|14500|15800|14500|FALSCH|0|17730|3230|15016|0|0|1|0
6|1|1|1|3|19042013|14:00:00|3|21.BV(0,1,OS).avi|0,1,0|0|1|0|3000|10500|10199|10199|FALSCH|0|13798|3599|15006|0|0|1|0
6|1|1|1|4|19042013|14:01:00|3|23.BV(1,1,OS).avi|1,1,0|1|1|0|2500|11500|11500|11500|WAHR|0|16807|5307|15008|1|0|0|0
6|1|1|1|5|19042013|14:01:00|3|10.BV(0,1,BV).avi|0,1,1|0|1|1|1500|12000|10300|10300|FALSCH|0|12940|2640|15020|0|0|1|0
6|1|1|1|6|19042013|14:02:00|3|03.WA(1,1,BV).avi|1,1,0|1|1|0|2500|10500|8100|10500|WAHR|0|14614|4114|9078|1|0|0|0
6|1|1|1|7|19042013|14:02:00|3|43.OS(0,0,WA).avi|0,0,0|0|0|0|2500|12500|12000|12000|FALSCH|0|18278|6278|1618|0|0|1|0
6|1|1|1|8|19042013|14:02:00|3|20.WA(0,1,WA).avi|0,1,1|0|1|1|3500|10500|10100|10100|FALSCH|0|12406|2306|991|0|0|1|0
6|1|1|1|9|19042013|14:03:00|3|14.OS(1,0,OS).avi|1,0,1|1|0|1|1500|12000|7800|7800|WAHR|0|20877|13077|884|1|0|0|0
6|1|1|1|10|19042013|14:03:00|3|12.OS(1,0,WA).avi|1,0,0|1|0|0|1500|12000|7800|12000|FALSCH|0|16271|4271|1110|0|0|1|0
6|1|1|1|11|19042013|14:03:00|3|28.OS(1,1,BV).avi|1,1,0|1|1|0|1500|11000|9800|11000|WAHR|0|14016|3016|1310|1|0|0|0
6|1|1|1|12|19042013|14:04:00|3|38.BV(0,0,OS).avi|0,0,0|0|0|0|2500|14500|15800|14500|FALSCH|0|17342|2842|960|0|0|1|0
6|1|1|1|13|19042013|14:04:00|3|14.OS(1,0,OS).avi|1,0,1|1|0|1|1500|12000|7800|7800|WAHR|0|18398|10598|1062|1|0|0|0
6|1|1|1|14|19042013|14:05:00|3|24.BV(1,0,BV).avi|1,0,1|1|0|1|2500|12000|10699|10699|WAHR|0|16062|5363|1115|1|0|0|0
6|1|1|1|15|19042013|14:05:00|3|19.WA(1,0,WA).avi|1,0,1|1|0|1|3000|13500|10300|10300|WAHR|0|13038|2738|998|1|0|0|0
6|1|1|1|16|19042013|14:05:00|3|26.OS(0,1,BV).avi|0,1,0|0|1|0|1500|10000|7300|7300|FALSCH|0|10501|3201|1273|0|0|1|0
6|1|1|1|17|19042013|14:05:00|3|04.WA(1,0,WA).avi|1,0,1|1|0|1|3000|13500|10300|10300|WAHR|0|11934|1634|2124|1|0|0|0
6|1|1|1|18|19042013|14:06:00|3|33.WA(0,0,WA).avi|0,0,1|0|0|1|4500|11000|9500|9500|FALSCH|0|11540|2040|1218|0|0|1|0
6|1|1|1|19|19042013|14:06:00|3|45.OS(0,0,OS).avi|0,0,1|0|0|1|2500|12500|12000|12000|FALSCH|0|23074|11074|1054|0|0|1|0
6|1|1|1|20|19042013|14:06:00|3|30.OS(0,1,OS).avi|0,1,1|0|1|1|1000|9000|7300|7300|FALSCH|0|9918|2618|872|0|0|1|0
6|1|1|1|21|19042013|14:07:00|3|28.OS(1,1,BV).avi|1,1,0|1|1|0|1500|11000|9800|11000|WAHR|0|12998|1998|910|1|0|0|0
6|1|1|1|22|19042013|14:07:00|3|20.WA(0,1,WA).avi|0,1,1|0|1|1|3500|10500|10100|10100|FALSCH|0|11518|1418|1204|0|0|1|0
6|1|1|1|23|19042013|14:08:00|3|46.OS(0,0,OS).avi|0,0,1|0|0|1|2500|12500|12000|12000|FALSCH|0|24399|12399|1163|0|0|1|0
6|1|1|1|24|19042013|14:08:00|3|48.OS(1,1,OS).avi|1,1,1|1|1|1|1500|11000|9800|9800|WAHR|0|14043|4243|1068|1|0|0|0
6|1|1|1|25|19042013|14:08:00|3|16.WA(0,1,OS).avi|0,1,0|0|1|0|5000|11000|10000|10000|FALSCH|0|11222|1222|882|0|0|1|0
6|1|1|1|26|19042013|14:08:00|3|18.WA(1,1,OS).avi|1,1,0|1|1|0|2500|10500|8100|10500|WAHR|0|13599|3099|984|1|0|0|0
6|1|1|1|27|19042013|14:09:00|3|39.BV(0,0,BV).avi|0,0,1|0|0|1|2500|14500|15800|14500|FALSCH|0|17759|3259|1029|0|0|1|0
6|1|1|1|28|19042013|14:09:00|3|35.WA(1,1,WA).avi|1,1,1|1|1|1|2000|10500|8100|8100|WAHR|0|13141|5041|1002|1|0|0|0
6|1|1|1|29|19042013|14:09:00|3|32.WA(0,0,OS).avi|0,0,0|0|0|0|4500|11000|9500|9500|FALSCH|0|11534|2034|1285|0|0|1|0
6|1|1|1|30|19042013|14:10:00|3|48.OS(1,1,OS).avi|1,1,1|1|1|1|1500|11000|9800|9800|WAHR|0|13919|4119|883|1|0|0|0
6|1|1|1|31|19042013|14:10:00|3|26.OS(0,1,BV).avi|0,1,0|0|1|0|1500|10000|7300|7300|FALSCH|0|9470|2170|838|0|0|1|0
6|1|1|1|32|19042013|14:10:00|3|15.OS(0,1,OS).avi|0,1,1|0|1|1|1000|9000|7300|7300|FALSCH|0|8478|1178|885|0|0|1|0
6|1|1|1|33|19042013|14:10:00|3|35.WA(1,1,WA).avi|1,1,1|1|1|1|2000|10500|8100|8100|WAHR|0|13271|5171|905|1|0|0|0
6|1|1|1|34|19042013|14:11:00|3|17.WA(1,0,OS).avi|1,0,0|1|0|0|3000|13500|10300|13500|FALSCH|0|18494|4994|991|0|0|1|0
6|1|1|1|35|19042013|14:11:00|3|41.BV(1,1,BV).avi|1,1,1|1|1|1|2500|11500|11500|11500|WAHR|0|13686|2186|1152|1|0|0|0
6|1|1|1|36|19042013|14:12:00|3|17.WA(1,0,OS).avi|1,0,0|1|0|0|3000|13500|10300|13500|FALSCH|0|16718|3218|898|0|0|1|0
6|1|1|1|37|19042013|14:12:00|3|37.BV(0,0,WA).avi|0,0,0|0|0|0|2500|14500|15800|14500|FALSCH|0|17278|2778|1183|0|0|1|0
6|1|1|1|38|19042013|14:12:00|3|27.OS(1,0,BV).avi|1,0,0|1|0|0|1500|12000|7800|12000|FALSCH|0|15262|3262|1061|0|0|1|0
6|1|1|1|39|19042013|14:13:00|3|17.WA(1,0,OS).avi|1,0,0|1|0|0|3000|13500|10300|13500|FALSCH|0|16838|3338|804|0|0|1|0
6|1|1|1|40|19042013|14:13:00|3|45.OS(0,0,OS).avi|0,0,1|0|0|1|2500|12500|12000|12000|FALSCH|0|23182|11182|1006|0|0|1|0
6|1|1|1|41|19042013|14:13:00|3|06.BV(0,1,WA).avi|0,1,0|0|1|0|3000|10500|10199|10199|FALSCH|0|12814|2615|1197|0|0|1|0
7|3|3|1|1|19042013|14:21:00|1|13.OS(1,1,WA).avi|1,1,0|1|1|0|1500|11000|9800|11000|FALSCH|1|17890|6890|6720|0|1|0|0
7|3|3|1|2|19042013|14:22:00|1|11.OS(0,1,WA).avi|0,1,0|0|1|0|1500|10000|7300|7300|WAHR|1|12239|4939|5053|0|0|0|1
7|3|3|1|3|19042013|14:22:00|1|36.WA(1,1,WA).avi|1,1,1|1|1|1|2500|10500|8100|8100|WAHR|0|14906|6806|4111|1|0|0|0
7|3|3|1|4|19042013|14:23:00|1|07.BV(1,0,WA).avi|1,0,0|1|0|0|2500|12000|10699|12000|FALSCH|0|30312|18312|7325|0|0|1|0
7|3|3|1|5|19042013|14:24:00|1|04.WA(1,0,WA).avi|1,0,1|1|0|1|3000|13500|10300|10300|WAHR|0|26151|15851|2256|1|0|0|0
7|3|3|1|6|19042013|14:24:00|1|02.WA(1,0,BV).avi|1,0,0|1|0|0|3000|13500|10300|13500|FALSCH|0|23499|9999|1276|0|0|1|0
7|3|3|1|7|19042013|14:25:00|1|31.WA(0,0,BV).avi|0,0,0|0|0|0|4500|11000|9500|9500|FALSCH|0|14269|4769|1240|0|0|1|0
7|3|3|1|8|19042013|14:25:00|1|29.OS(1,0,OS).avi|1,0,1|1|0|1|1500|12000|7800|7800|WAHR|0|22211|14411|825|1|0|0|0
7|3|3|1|9|19042013|14:25:00|1|13.OS(1,1,WA).avi|1,1,0|1|1|0|1500|11000|9800|11000|WAHR|0|13335|2335|1018|1|0|0|0
7|3|3|1|10|19042013|14:26:00|1|34.WA(0,0,WA).avi|0,0,1|0|0|1|4500|11000|9500|9500|FALSCH|0|14321|4821|861|0|0|1|0
7|3|3|1|11|19042013|14:26:00|1|04.WA(1,0,WA).avi|1,0,1|1|0|1|3000|13500|10300|10300|WAHR|0|21459|11159|617|1|0|0|0
7|3|3|1|12|19042013|14:26:00|1|08.BV(1,1,WA).avi|1,1,0|1|1|0|2500|11500|11500|11500|WAHR|0|14162|2662|575|1|0|0|0
7|3|3|1|13|19042013|14:27:00|1|14.OS(1,0,OS).avi|1,0,1|1|0|1|1500|12000|7800|7800|WAHR|0|12423|4623|1025|1|0|0|0
7|3|3|1|14|19042013|14:27:00|1|19.WA(1,0,WA).avi|1,0,1|1|0|1|3000|13500|10300|10300|WAHR|0|14819|4519|1107|1|0|0|0
7|3|3|1|15|19042013|14:27:00|1|01.WA(0,1,BV).avi|0,1,0|0|1|0|5000|11000|10000|10000|FALSCH|0|14666|4666|1030|0|0|1|0
7|3|3|1|16|19042013|14:28:00|1|06.BV(0,1,WA).avi|0,1,0|0|1|0|3000|10500|10199|10199|FALSCH|0|11867|1668|490|0|0|1|0
7|3|3|1|17|19042013|14:28:00|1|35.WA(1,1,WA).avi|1,1,1|1|1|1|2000|10500|8100|8100|WAHR|0|12363|4263|789|1|0|0|0
7|3|3|1|18|19042013|14:28:00|1|05.WA(0,1,WA).avi|0,1,1|0|1|1|3500|10500|10100|10100|FALSCH|0|11713|1613|653|0|0|1|0
7|3|3|1|19|19042013|14:28:00|1|25.BV(0,1,BV).avi|0,1,1|0|1|1|1500|12000|10300|10300|FALSCH|0|11730|1430|1510|0|0|1|0
7|3|3|1|20|19042013|14:29:00|1|48.OS(1,1,OS).avi|1,1,1|1|1|1|1500|11000|9800|9800|WAHR|0|12451|2651|840|1|0|0|0
7|3|3|1|21|19042013|14:29:00|1|39.BV(0,0,BV).avi|0,0,1|0|0|1|2500|14500|15800|14500|FALSCH|0|16754|2254|807|0|0|1|0
7|3|3|1|22|19042013|14:29:00|1|28.OS(1,1,BV).avi|1,1,0|1|1|0|1500|11000|9800|11000|WAHR|0|12754|1754|3808|1|0|0|0
7|3|3|1|23|19042013|14:30:00|1|02.WA(1,0,BV).avi|1,0,0|1|0|0|3000|13500|10300|13500|FALSCH|0|15555|2055|798|0|0|1|0
7|3|3|1|24|19042013|14:30:00|1|16.WA(0,1,OS).avi|0,1,0|0|1|0|5000|11000|10000|10000|FALSCH|0|11835|1835|788|0|0|1|0
7|3|3|1|25|19042013|14:30:00|1|44.OS(0,0,BV).avi|0,0,0|0|0|0|2500|12500|12000|12000|FALSCH|0|9562|-2438|842|0|0|1|0
7|3|3|1|26|19042013|14:31:00|1|21.BV(0,1,OS).avi|0,1,0|0|1|0|3000|10500|10199|10199|FALSCH|0|11443|1244|1783|0|0|1|0
7|3|3|1|27|19042013|14:31:00|1|02.WA(1,0,BV).avi|1,0,0|1|0|0|3000|13500|10300|13500|FALSCH|0|13546|46|738|0|0|1|0
7|3|3|1|28|19042013|14:31:00|1|15.OS(0,1,OS).avi|0,1,1|0|1|1|1000|9000|7300|7300|FALSCH|0|8986|1686|808|0|0|1|0
7|3|3|1|29|19042013|14:31:00|1|43.OS(0,0,WA).avi|0,0,0|0|0|0|2500|12500|12000|12000|FALSCH|0|12930|930|971|0|0|1|0
7|3|3|1|30|19042013|14:32:00|1|22.BV(1,0,OS).avi|1,0,0|1|0|0|2500|12000|10699|12000|FALSCH|0|13893|1893|814|0|0|1|0
7|3|3|1|31|19042013|14:32:00|1|25.BV(0,1,BV).avi|0,1,1|0|1|1|1500|12000|10300|10300|FALSCH|0|11043|743|867|0|0|1|0
7|3|3|1|32|19042013|14:32:00|1|15.OS(0,1,OS).avi|0,1,1|0|1|1|1000|9000|7300|7300|FALSCH|0|8546|1246|398|0|0|1|0
7|3|3|1|33|19042013|14:32:00|1|08.BV(1,1,WA).avi|1,1,0|1|1|0|2500|11500|11500|11500|WAHR|0|13972|2472|819|1|0|0|0
7|3|3|1|34|19042013|14:33:00|1|21.BV(0,1,OS).avi|0,1,0|0|1|0|3000|10500|10199|10199|FALSCH|0|11795|1596|404|0|0|1|0
7|3|3|1|35|19042013|14:33:00|1|45.OS(0,0,OS).avi|0,0,1|0|0|1|2500|12500|12000|12000|WAHR|1|14538|2538|2441|0|0|0|1
7|3|3|1|36|19042013|14:33:00|1|33.WA(0,0,WA).avi|0,0,1|0|0|1|4500|11000|9500|9500|FALSCH|0|12586|3086|647|0|0|1|0
7|3|3|1|37|19042013|14:34:00|1|35.WA(1,1,WA).avi|1,1,1|1|1|1|2000|10500|8100|8100|WAHR|0|12435|4335|429|1|0|0|0
7|3|3|1|38|19042013|14:34:00|1|23.BV(1,1,OS).avi|1,1,0|1|1|0|2500|11500|11500|11500|WAHR|0|15465|3965|1241|1|0|0|0
7|3|3|1|39|19042013|14:34:00|1|37.BV(0,0,WA).avi|0,0,0|0|0|0|2500|14500|15800|14500|FALSCH|0|7538|-6962|1008|0|0|1|0
7|3|3|1|40|19042013|14:34:00|1|31.WA(0,0,BV).avi|0,0,0|0|0|0|4500|11000|9500|9500|FALSCH|0|11115|1615|805|0|0|1|0
7|3|3|1|41|19042013|14:35:00|1|35.WA(1,1,WA).avi|1,1,1|1|1|1|2000|10500|8100|8100|WAHR|0|13090|4990|670|1|0|0|0
7|3|3|1|42|19042013|14:35:00|1|45.OS(0,0,OS).avi|0,0,1|0|0|1|2500|12500|12000|12000|FALSCH|0|21682|9682|686|0|0|1|0
7|3|3|1|43|19042013|14:35:00|1|34.WA(0,0,WA).avi|0,0,1|0|0|1|4500|11000|9500|9500|FALSCH|0|11410|1910|856|0|0|1|0
7|3|3|1|44|19042013|14:36:00|1|45.OS(0,0,OS).avi|0,0,1|0|0|1|2500|12500|12000|12000|FALSCH|0|22554|10554|720|0|0|1|0
7|3|3|1|45|19042013|14:36:00|1|40.BV(0,0,BV).avi|0,0,1|0|0|1|2500|14500|15800|14500|FALSCH|0|16826|2326|845|0|0|1|0
8|1|1|1|1|19042013|15:13:00|2|31.WA(0,0,BV).avi|0,0,0|0|0|0|4500|11000|9500|9500|FALSCH|0|30308|20808|15009|0|0|1|0
8|1|1|1|2|19042013|15:14:00|2|21.BV(0,1,OS).avi|0,1,0|0|1|0|3000|10500|10199|10199|FALSCH|0|15951|5752|15002|0|0|1|0
8|1|1|1|3|19042013|15:15:00|2|13.OS(1,1,WA).avi|1,1,0|1|1|0|1500|11000|9800|11000|WAHR|0|15112|4112|15006|1|0|0|0
8|1|1|1|4|19042013|15:15:00|2|48.OS(1,1,OS).avi|1,1,1|1|1|1|1500|11000|9800|9800|WAHR|0|15479|5679|15004|1|0|0|0
8|1|1|1|5|19042013|15:16:00|2|25.BV(0,1,BV).avi|0,1,1|0|1|1|1500|12000|10300|10300|FALSCH|0|14120|3820|15000|0|0|1|0
8|1|1|1|6|19042013|15:17:00|2|18.WA(1,1,OS).avi|1,1,0|1|1|0|2500|10500|8100|10500|FALSCH|1|13551|3051|15007|0|1|0|0
8|1|1|1|7|19042013|15:17:00|2|20.WA(0,1,WA).avi|0,1,1|0|1|1|3500|10500|10100|10100|FALSCH|0|13855|3755|15016|0|0|1|0
8|1|1|1|8|19042013|15:18:00|2|03.WA(1,1,BV).avi|1,1,0|1|1|0|2500|10500|8100|10500|WAHR|0|13016|2516|15004|1|0|0|0
8|1|1|1|9|19042013|15:18:00|2|13.OS(1,1,WA).avi|1,1,0|1|1|0|1500|11000|9800|11000|WAHR|0|12384|1384|15018|1|0|0|0
8|1|1|1|10|19042013|15:19:00|2|22.BV(1,0,OS).avi|1,0,0|1|0|0|2500|12000|10699|12000|WAHR|1|12175|175|15004|0|0|0|1
8|1|1|1|11|19042013|15:20:00|2|48.OS(1,1,OS).avi|1,1,1|1|1|1|1500|11000|9800|9800|FALSCH|1|14480|4680|15006|0|1|0|0
8|1|1|1|12|19042013|15:20:00|2|01.WA(0,1,BV).avi|0,1,0|0|1|0|5000|11000|10000|10000|WAHR|1|15023|5023|15003|0|0|0|1
8|1|1|1|13|19042013|15:21:00|2|13.OS(1,1,WA).avi|1,1,0|1|1|0|1500|11000|9800|11000|WAHR|0|12944|1944|15014|1|0|0|0
8|1|1|1|14|19042013|15:21:00|2|36.WA(1,1,WA).avi|1,1,1|1|1|1|2500|10500|8100|8100|WAHR|0|14248|6148|15005|1|0|0|0
8|1|1|1|15|19042013|15:22:00|2|21.BV(0,1,OS).avi|0,1,0|0|1|0|3000|10500|10199|10199|FALSCH|0|13311|3112|15014|0|0|1|0
8|1|1|1|16|19042013|15:22:00|2|36.WA(1,1,WA).avi|1,1,1|1|1|1|2500|10500|8100|8100|WAHR|0|14472|6372|15007|1|0|0|0
8|1|1|1|17|19042013|15:23:00|2|45.OS(0,0,OS).avi|0,0,1|0|0|1|2500|12500|12000|12000|FALSCH|0|14159|2159|15008|0|0|1|0
8|1|1|1|18|19042013|15:24:00|2|42.BV(1,1,BV).avi|1,1,1|1|1|1|2500|11500|11500|11500|WAHR|0|16080|4580|15018|1|0|0|0
8|1|1|1|19|19042013|15:24:00|2|16.WA(0,1,OS).avi|0,1,0|0|1|0|5000|11000|10000|10000|FALSCH|0|14448|4448|15019|0|0|1|0
8|1|1|1|20|19042013|15:25:00|2|25.BV(0,1,BV).avi|0,1,1|0|1|1|1500|12000|10300|10300|FALSCH|0|15711|5411|15010|0|0|1|0
8|1|1|1|21|19042013|15:25:00|2|11.OS(0,1,WA).avi|0,1,0|0|1|0|1500|10000|7300|7300|WAHR|1|13191|5891|15004|0|0|0|1
8|1|1|1|22|19042013|15:26:00|2|14.OS(1,0,OS).avi|1,0,1|1|0|1|1500|12000|7800|7800|FALSCH|1|12695|4895|15017|0|1|0|0
8|1|1|1|23|19042013|15:27:00|2|37.BV(0,0,WA).avi|0,0,0|0|0|0|2500|14500|15800|14500|FALSCH|0|27966|13466|15006|0|0|1|0
8|1|1|1|24|19042013|15:27:00|2|32.WA(0,0,OS).avi|0,0,0|0|0|0|4500|11000|9500|9500|FALSCH|0|23671|14171|15004|0|0|1|0
8|1|1|1|25|19042013|15:28:00|2|48.OS(1,1,OS).avi|1,1,1|1|1|1|1500|11000|9800|9800|WAHR|0|15024|5224|15007|1|0|0|0
8|1|1|1|26|19042013|15:29:00|2|36.WA(1,1,WA).avi|1,1,1|1|1|1|2500|10500|8100|8100|WAHR|0|14919|6819|15008|1|0|0|0
8|1|1|1|27|19042013|15:29:00|2|12.OS(1,0,WA).avi|1,0,0|1|0|0|1500|12000|7800|12000|FALSCH|0|28503|16503|15001|0|0|1|0
8|1|1|1|28|19042013|15:30:00|2|43.OS(0,0,WA).avi|0,0,0|0|0|0|2500|12500|12000|12000|FALSCH|0|21720|9720|15013|0|0|1|0
8|1|1|1|29|19042013|15:31:00|2|44.OS(0,0,BV).avi|0,0,0|0|0|0|2500|12500|12000|12000|FALSCH|0|22063|10063|15003|0|0|1|0
8|1|1|1|30|19042013|15:31:00|2|15.OS(0,1,OS).avi|0,1,1|0|1|1|1000|9000|7300|7300|FALSCH|0|12751|5451|15015|0|0|1|0
8|1|1|1|31|19042013|15:32:00|2|19.WA(1,0,WA).avi|1,0,1|1|0|1|3000|13500|10300|10300|WAHR|0|27784|17484|15019|1|0|0|0
8|1|1|1|32|19042013|15:33:00|2|22.BV(1,0,OS).avi|1,0,0|1|0|0|2500|12000|10699|12000|FALSCH|0|22143|10143|2571|0|0|1|0
8|1|1|1|33|19042013|15:33:00|2|12.OS(1,0,WA).avi|1,0,0|1|0|0|1500|12000|7800|12000|FALSCH|0|12511|511|3432|0|0|1|0
8|1|1|1|34|19042013|15:34:00|2|19.WA(1,0,WA).avi|1,0,1|1|0|1|3000|13500|10300|10300|WAHR|0|26895|16595|14707|1|0|0|0
8|1|1|1|35|19042013|15:35:00|2|45.OS(0,0,OS).avi|0,0,1|0|0|1|2500|12500|12000|12000|WAHR|1|27815|15815|10561|0|0|0|1
8|1|1|1|36|19042013|15:35:00|2|33.WA(0,0,WA).avi|0,0,1|0|0|1|4500|11000|9500|9500|FALSCH|0|12263|2763|4711|0|0|1|0
8|1|1|1|37|19042013|15:35:00|2|15.OS(0,1,OS).avi|0,1,1|0|1|1|1000|9000|7300|7300|FALSCH|0|10335|3035|806|0|0|1|0
8|1|1|1|38|19042013|15:35:00|2|26.OS(0,1,BV).avi|0,1,0|0|1|0|1500|10000|7300|7300|FALSCH|0|8928|1628|751|0|0|1|0
8|1|1|1|39|19042013|15:36:00|2|45.OS(0,0,OS).avi|0,0,1|0|0|1|2500|12500|12000|12000|WAHR|1|29423|17423|7170|0|0|0|1
8|1|1|1|40|19042013|15:36:00|2|06.BV(0,1,WA).avi|0,1,0|0|1|0|3000|10500|10199|10199|FALSCH|0|14038|3839|5870|0|0|1|0
8|1|1|1|41|19042013|15:37:00|2|08.BV(1,1,WA).avi|1,1,0|1|1|0|2500|11500|11500|11500|WAHR|0|15288|3788|2250|1|0|0|0
8|1|1|1|42|19042013|15:37:00|2|12.OS(1,0,WA).avi|1,0,0|1|0|0|1500|12000|7800|12000|FALSCH|0|16440|4440|2200|0|0|1|0
8|1|1|1|43|19042013|15:38:00|2|28.OS(1,1,BV).avi|1,1,0|1|1|0|1500|11000|9800|11000|FALSCH|1|14383|3383|7052|0|1|0|0
8|1|1|1|44|19042013|15:38:00|2|45.OS(0,0,OS).avi|0,0,1|0|0|1|2500|12500|12000|12000|FALSCH|0|26655|14655|5432|0|0|1|0
8|1|1|1|45|19042013|15:39:00|2|40.BV(0,0,BV).avi|0,0,1|0|0|1|2500|14500|15800|14500|FALSCH|0|17968|3468|863|0|0|1|0
8|1|1|1|46|19042013|15:39:00|2|03.WA(1,1,BV).avi|1,1,0|1|1|0|2500|10500|8100|10500|WAHR|0|15311|4811|10095|1|0|0|0
8|1|1|1|47|19042013|15:40:00|2|14.OS(1,0,OS).avi|1,0,1|1|0|1|1500|12000|7800|7800|FALSCH|1|30345|22545|8060|0|1|0|0
8|1|1|1|48|19042013|15:40:00|2|22.BV(1,0,OS).avi|1,0,0|1|0|0|2500|12000|10699|12000|FALSCH|0|23640|11640|11553|0|0|1|0
8|1|1|1|49|19042013|15:41:00|2|45.OS(0,0,OS).avi|0,0,1|0|0|1|2500|12500|12000|12000|FALSCH|0|28767|16767|7614|0|0|1|0
8|1|1|1|50|19042013|15:41:00|2|09.BV(1,0,BV).avi|1,0,1|1|0|1|2500|12000|10699|10699|WAHR|0|19496|8797|1161|1|0|0|0
8|1|1|1|51|19042013|15:42:00|2|28.OS(1,1,BV).avi|1,1,0|1|1|0|1500|11000|9800|11000|FALSCH|1|15048|4048|3276|0|1|0|0
8|1|1|1|52|19042013|15:42:00|2|45.OS(0,0,OS).avi|0,0,1|0|0|1|2500|12500|12000|12000|FALSCH|0|26327|14327|11790|0|0|1|0
8|1|1|1|53|19042013|15:43:00|2|06.BV(0,1,WA).avi|0,1,0|0|1|0|3000|10500|10199|10199|FALSCH|0|13279|3080|6846|0|0|1|0
8|1|1|1|54|19042013|15:44:00|2|14.OS(1,0,OS).avi|1,0,1|1|0|1|1500|12000|7800|7800|WAHR|0|28104|20304|11790|1|0|0|0
8|1|1|1|55|19042013|15:44:00|2|13.OS(1,1,WA).avi|1,1,0|1|1|0|1500|11000|9800|11000|WAHR|0|14951|3951|8088|1|0|0|0
8|1|1|1|56|19042013|15:44:00|2|08.BV(1,1,WA).avi|1,1,0|1|1|0|2500|11500|11500|11500|WAHR|0|15864|4364|5159|1|0|0|0
8|1|1|1|57|19042013|15:45:00|2|24.BV(1,0,BV).avi|1,0,1|1|0|1|2500|12000|10699|10699|WAHR|0|17776|7077|850|1|0|0|0
8|1|1|1|58|19042013|15:45:00|2|01.WA(0,1,BV).avi|0,1,0|0|1|0|5000|11000|10000|10000|FALSCH|0|15488|5488|2068|0|0|1|0
8|1|1|1|59|19042013|15:46:00|2|19.WA(1,0,WA).avi|1,0,1|1|0|1|3000|13500|10300|10300|WAHR|0|28479|18179|2616|1|0|0|0
8|1|1|1|60|19042013|15:46:00|2|08.BV(1,1,WA).avi|1,1,0|1|1|0|2500|11500|11500|11500|WAHR|0|16367|4867|1820|1|0|0|0
8|1|1|1|61|19042013|15:47:00|2|40.BV(0,0,BV).avi|0,0,1|0|0|1|2500|14500|15800|14500|FALSCH|0|22296|7796|1965|0|0|1|0
8|1|1|1|62|19042013|15:47:00|2|19.WA(1,0,WA).avi|1,0,1|1|0|1|3000|13500|10300|10300|WAHR|0|26799|16499|2193|1|0|0|0
8|1|1|1|63|19042013|15:48:00|2|01.WA(0,1,BV).avi|0,1,0|0|1|0|5000|11000|10000|10000|FALSCH|0|15919|5919|1934|0|0|1|0
8|1|1|1|64|19042013|15:48:00|2|03.WA(1,1,BV).avi|1,1,0|1|1|0|2500|10500|8100|10500|WAHR|0|14536|4036|1917|1|0|0|0
8|1|1|1|65|19042013|15:48:00|2|08.BV(1,1,WA).avi|1,1,0|1|1|0|2500|11500|11500|11500|WAHR|0|15911|4411|1878|1|0|0|0
9|2|2|1|1|22042013|11:10:00|3|16.WA(0,1,OS).avi|0,1,0|0|1|0|5000|11000|10000|10000|WAHR|1|14009|4009|15017|0|0|0|1
9|2|2|1|2|22042013|11:10:00|3|28.OS(1,1,BV).avi|1,1,0|1|1|0|1500|11000|9800|11000|WAHR|0|14807|3807|5986|1|0|0|0
9|2|2|1|3|22042013|11:11:00|3|05.WA(0,1,WA).avi|0,1,1|0|1|1|3500|10500|10100|10100|FALSCH|0|12030|1930|3284|0|0|1|0
9|2|2|1|4|22042013|11:11:00|3|39.BV(0,0,BV).avi|0,0,1|0|0|1|2500|14500|15800|14500|FALSCH|0|15599|1099|3188|0|0|1|0
9|2|2|1|5|22042013|11:11:00|3|11.OS(0,1,WA).avi|0,1,0|0|1|0|1500|10000|7300|7300|FALSCH|0|10406|3106|1558|0|0|1|0
9|2|2|1|6|22042013|11:12:00|3|14.OS(1,0,OS).avi|1,0,1|1|0|1|1500|12000|7800|7800|FALSCH|1|9597|1797|4076|0|1|0|0
9|2|2|1|7|22042013|11:12:00|3|32.WA(0,0,OS).avi|0,0,0|0|0|0|4500|11000|9500|9500|FALSCH|0|12540|3040|2209|0|0|1|0
9|2|2|1|8|22042013|11:12:00|3|03.WA(1,1,BV).avi|1,1,0|1|1|0|2500|10500|8100|10500|FALSCH|1|13462|2962|4277|0|1|0|0
9|2|2|1|9|22042013|11:13:00|3|15.OS(0,1,OS).avi|0,1,1|0|1|1|1000|9000|7300|7300|FALSCH|0|10446|3146|997|0|0|1|0
9|2|2|1|10|22042013|11:13:00|3|10.BV(0,1,BV).avi|0,1,1|0|1|1|1500|12000|10300|10300|FALSCH|0|12575|2275|1104|0|0|1|0
9|2|2|1|11|22042013|11:13:00|3|03.WA(1,1,BV).avi|1,1,0|1|1|0|2500|10500|8100|10500|FALSCH|1|14470|3970|811|0|1|0|0
9|2|2|1|12|22042013|11:13:00|3|26.OS(0,1,BV).avi|0,1,0|0|1|0|1500|10000|7300|7300|FALSCH|0|8639|1339|1026|0|0|1|0
9|2|2|1|13|22042013|11:14:00|3|12.OS(1,0,WA).avi|1,0,0|1|0|0|1500|12000|7800|12000|FALSCH|0|12086|86|693|0|0|1|0
9|2|2|1|14|22042013|11:14:00|3|04.WA(1,0,WA).avi|1,0,1|1|0|1|3000|13500|10300|10300|FALSCH|1|23822|13522|4727|0|1|0|0
9|2|2|1|15|22042013|11:14:00|3|34.WA(0,0,WA).avi|0,0,1|0|0|1|4500|11000|9500|9500|FALSCH|0|5998|-3502|646|0|0|1|0
9|2|2|1|16|22042013|11:15:00|3|28.OS(1,1,BV).avi|1,1,0|1|1|0|1500|11000|9800|11000|FALSCH|1|7960|-3040|2405|0|1|0|0
9|2|2|1|17|22042013|11:15:00|3|08.BV(1,1,WA).avi|1,1,0|1|1|0|2500|11500|11500|11500|FALSCH|1|4708|-6792|1544|0|1|0|0
9|2|2|1|18|22042013|11:15:00|3|48.OS(1,1,OS).avi|1,1,1|1|1|1|1500|11000|9800|9800|FALSCH|1|13959|4159|1241|0|1|0|0
9|2|2|1|19|22042013|11:16:00|3|19.WA(1,0,WA).avi|1,0,1|1|0|1|3000|13500|10300|10300|WAHR|0|24109|13809|9481|1|0|0|0
9|2|2|1|20|22042013|11:16:00|3|38.BV(0,0,OS).avi|0,0,0|0|0|0|2500|14500|15800|14500|FALSCH|0|15029|529|1092|0|0|1|0
9|2|2|1|21|22042013|11:16:00|3|35.WA(1,1,WA).avi|1,1,1|1|1|1|2000|10500|8100|8100|WAHR|0|14920|6820|2454|1|0|0|0
9|2|2|1|22|22042013|11:17:00|3|09.BV(1,0,BV).avi|1,0,1|1|0|1|2500|12000|10699|10699|FALSCH|1|30334|19635|5040|0|1|0|0
9|2|2|1|23|22042013|11:17:00|3|13.OS(1,1,WA).avi|1,1,0|1|1|0|1500|11000|9800|11000|FALSCH|1|5583|-5417|3078|0|1|0|0
9|2|2|1|24|22042013|11:17:00|3|42.BV(1,1,BV).avi|1,1,1|1|1|1|2500|11500|11500|11500|FALSCH|1|3518|-7982|618|0|1|0|0
9|2|2|1|25|22042013|11:18:00|3|45.OS(0,0,OS).avi|0,0,1|0|0|1|2500|12500|12000|12000|FALSCH|0|2142|-9858|791|0|0|1|0
9|2|2|1|26|22042013|11:18:00|3|22.BV(1,0,OS).avi|1,0,0|1|0|0|2500|12000|10699|12000|WAHR|1|13038|1038|3582|0|0|0|1
9|2|2|1|27|22042013|11:18:00|3|45.OS(0,0,OS).avi|0,0,1|0|0|1|2500|12500|12000|12000|FALSCH|0|13134|1134|789|0|0|1|0
9|2|2|1|28|22042013|11:18:00|3|35.WA(1,1,WA).avi|1,1,1|1|1|1|2000|10500|8100|8100|WAHR|0|12630|4530|652|1|0|0|0
9|2|2|1|29|22042013|11:19:00|3|26.OS(0,1,BV).avi|0,1,0|0|1|0|1500|10000|7300|7300|FALSCH|0|8535|1235|931|0|0|1|0
9|2|2|1|30|22042013|11:19:00|3|11.OS(0,1,WA).avi|0,1,0|0|1|0|1500|10000|7300|7300|FALSCH|0|8510|1210|816|0|0|1|0
9|2|2|1|31|22042013|11:19:00|3|34.WA(0,0,WA).avi|0,0,1|0|0|1|4500|11000|9500|9500|FALSCH|0|12183|2683|1598|0|0|1|0
9|2|2|1|32|22042013|11:19:00|3|38.BV(0,0,OS).avi|0,0,0|0|0|0|2500|14500|15800|14500|FALSCH|0|11438|-3062|1128|0|0|1|0
9|2|2|1|33|22042013|11:20:00|3|19.WA(1,0,WA).avi|1,0,1|1|0|1|3000|13500|10300|10300|WAHR|0|19326|9026|2538|1|0|0|0
9|2|2|1|34|22042013|11:20:00|3|08.BV(1,1,WA).avi|1,1,0|1|1|0|2500|11500|11500|11500|WAHR|0|13975|2475|947|1|0|0|0
9|2|2|1|35|22042013|11:21:00|3|41.BV(1,1,BV).avi|1,1,1|1|1|1|2500|11500|11500|11500|WAHR|0|13638|2138|661|1|0|0|0
9|2|2|1|36|22042013|11:21:00|3|13.OS(1,1,WA).avi|1,1,0|1|1|0|1500|11000|9800|11000|WAHR|0|12247|1247|1066|1|0|0|0
9|2|2|1|37|22042013|11:21:00|3|36.WA(1,1,WA).avi|1,1,1|1|1|1|2500|10500|8100|8100|WAHR|0|12630|4530|2387|1|0|0|0
9|2|2|1|38|22042013|11:21:00|3|13.OS(1,1,WA).avi|1,1,0|1|1|0|1500|11000|9800|11000|WAHR|0|12223|1223|3165|1|0|0|0
9|2|2|1|39|22042013|11:22:00|3|35.WA(1,1,WA).avi|1,1,1|1|1|1|2000|10500|8100|8100|WAHR|0|12390|4290|859|1|0|0|0
9|2|2|1|40|22042013|11:22:00|3|27.OS(1,0,BV).avi|1,0,0|1|0|0|1500|12000|7800|12000|FALSCH|0|16231|4231|955|0|0|1|0
9|2|2|1|41|22042013|11:22:00|3|13.OS(1,1,WA).avi|1,1,0|1|1|0|1500|11000|9800|11000|WAHR|0|12262|1262|1459|1|0|0|0
9|2|2|1|42|22042013|11:23:00|3|04.WA(1,0,WA).avi|1,0,1|1|0|1|3000|13500|10300|10300|FALSCH|1|18679|8379|3914|0|1|0|0
9|2|2|1|43|22042013|11:23:00|3|03.WA(1,1,BV).avi|1,1,0|1|1|0|2500|10500|8100|10500|WAHR|0|11342|842|1674|1|0|0|0
9|2|2|1|44|22042013|11:23:00|3|26.OS(0,1,BV).avi|0,1,0|0|1|0|1500|10000|7300|7300|FALSCH|0|10127|2827|773|0|0|1|0
9|2|2|1|45|22042013|11:24:00|3|22.BV(1,0,OS).avi|1,0,0|1|0|0|2500|12000|10699|12000|FALSCH|0|17438|5438|1121|0|0|1|0
9|2|2|1|46|22042013|11:24:00|3|43.OS(0,0,WA).avi|0,0,0|0|0|0|2500|12500|12000|12000|FALSCH|0|17942|5942|1525|0|0|1|0
9|2|2|1|47|22042013|11:25:00|3|22.BV(1,0,OS).avi|1,0,0|1|0|0|2500|12000|10699|12000|FALSCH|0|25598|13598|1706|0|0|1|0
9|2|2|1|48|22042013|11:25:00|3|32.WA(0,0,OS).avi|0,0,0|0|0|0|4500|11000|9500|9500|FALSCH|0|14622|5122|1090|0|0|1|0
9|2|2|1|49|22042013|11:25:00|3|14.OS(1,0,OS).avi|1,0,1|1|0|1|1500|12000|7800|7800|FALSCH|1|24990|17190|6082|0|1|0|0
9|2|2|1|50|22042013|11:26:00|3|05.WA(0,1,WA).avi|0,1,1|0|1|1|3500|10500|10100|10100|FALSCH|0|12294|2194|2393|0|0|1|0
9|2|2|1|51|22042013|11:26:00|3|12.OS(1,0,WA).avi|1,0,0|1|0|0|1500|12000|7800|12000|FALSCH|0|16646|4646|3215|0|0|1|0
9|2|2|1|52|22042013|11:27:00|3|15.OS(0,1,OS).avi|0,1,1|0|1|1|1000|9000|7300|7300|FALSCH|0|8822|1522|7090|0|0|1|0
9|2|2|1|53|22042013|11:27:00|3|41.BV(1,1,BV).avi|1,1,1|1|1|1|2500|11500|11500|11500|WAHR|0|13854|2354|1297|1|0|0|0
9|2|2|1|54|22042013|11:27:00|3|27.OS(1,0,BV).avi|1,0,0|1|0|0|1500|12000|7800|12000|FALSCH|0|14167|2167|1125|0|0|1|0
9|2|2|1|55|22042013|11:27:00|3|19.WA(1,0,WA).avi|1,0,1|1|0|1|3000|13500|10300|10300|WAHR|0|11102|802|1986|1|0|0|0
9|2|2|1|56|22042013|11:28:00|3|24.BV(1,0,BV).avi|1,0,1|1|0|1|2500|12000|10699|10699|WAHR|0|13751|3052|1163|1|0|0|0
9|2|2|1|57|22042013|11:28:00|3|04.WA(1,0,WA).avi|1,0,1|1|0|1|3000|13500|10300|10300|WAHR|0|12430|2130|2462|1|0|0|0
9|2|2|1|58|22042013|11:28:00|3|24.BV(1,0,BV).avi|1,0,1|1|0|1|2500|12000|10699|10699|WAHR|0|12463|1764|6185|1|0|0|0
9|2|2|1|59|22042013|11:29:00|3|14.OS(1,0,OS).avi|1,0,1|1|0|1|1500|12000|7800|7800|WAHR|0|10158|2358|655|1|0|0|0
11|1|1|0|1|22042013|12:29:00|2|32.WA(0,0,OS).avi|0,0,0|0|0|0|4500|11000|9500|9500|FALSCH|0|30068|20568|11302|0|0|1|0
11|1|1|0|2|22042013|12:30:00|2|37.BV(0,0,WA).avi|0,0,0|0|0|0|2500|14500|15800|14500|FALSCH|0|29875|15375|15013|0|0|1|0
11|1|1|0|3|22042013|12:31:00|2|01.WA(0,1,BV).avi|0,1,0|0|1|0|5000|11000|10000|10000|FALSCH|0|17092|7092|7031|0|0|1|0
11|1|1|0|4|22042013|12:31:00|2|48.OS(1,1,OS).avi|1,1,1|1|1|1|1500|11000|9800|9800|FALSCH|1|17021|7221|9843|0|1|0|0
11|1|1|0|5|22042013|12:32:00|2|11.OS(0,1,WA).avi|0,1,0|0|1|0|1500|10000|7300|7300|FALSCH|0|17018|9718|850|0|0|1|0
11|1|1|0|6|22042013|12:32:00|2|40.BV(0,0,BV).avi|0,0,1|0|0|1|2500|14500|15800|14500|FALSCH|0|29872|15372|2144|0|0|1|0
11|1|1|0|7|22042013|12:33:00|2|18.WA(1,1,OS).avi|1,1,0|1|1|0|2500|10500|8100|10500|FALSCH|1|16529|6029|4009|0|1|0|0
11|1|1|0|8|22042013|12:33:00|2|23.BV(1,1,OS).avi|1,1,0|1|1|0|2500|11500|11500|11500|FALSCH|1|19275|7775|2762|0|1|0|0
11|1|1|0|9|22042013|12:34:00|2|33.WA(0,0,WA).avi|0,0,1|0|0|1|4500|11000|9500|9500|FALSCH|0|29961|20461|3114|0|0|1|0
11|1|1|0|10|22042013|12:34:00|2|39.BV(0,0,BV).avi|0,0,1|0|0|1|2500|14500|15800|14500|FALSCH|0|29890|15390|3786|0|0|1|0
11|1|1|0|11|22042013|12:35:00|2|27.OS(1,0,BV).avi|1,0,0|1|0|0|1500|12000|7800|12000|FALSCH|0|30415|18415|15014|0|0|1|0
11|1|1|0|12|22042013|12:36:00|2|10.BV(0,1,BV).avi|0,1,1|0|1|1|1500|12000|10300|10300|FALSCH|0|17418|7118|8249|0|0|1|0
11|1|1|0|13|22042013|12:36:00|2|40.BV(0,0,BV).avi|0,0,1|0|0|1|2500|14500|15800|14500|FALSCH|0|29918|15418|6851|0|0|1|0
11|1|1|0|14|22042013|12:37:00|2|31.WA(0,0,BV).avi|0,0,0|0|0|0|4500|11000|9500|9500|FALSCH|0|29960|20460|15009|0|0|1|0
11|1|1|0|15|22042013|12:38:00|2|12.OS(1,0,WA).avi|1,0,0|1|0|0|1500|12000|7800|12000|FALSCH|0|30414|18414|870|0|0|1|0
11|1|1|0|16|22042013|12:39:00|2|41.BV(1,1,BV).avi|1,1,1|1|1|1|2500|11500|11500|11500|FALSCH|1|19283|7783|15017|0|1|0|0
11|1|1|0|17|22042013|12:39:00|2|35.WA(1,1,WA).avi|1,1,1|1|1|1|2000|10500|8100|8100|WAHR|0|11902|3802|2840|1|0|0|0
11|1|1|0|18|22042013|12:39:00|2|03.WA(1,1,BV).avi|1,1,0|1|1|0|2500|10500|8100|10500|WAHR|0|13858|3358|1112|1|0|0|0
11|1|1|0|19|22042013|12:39:00|2|39.BV(0,0,BV).avi|0,0,1|0|0|1|2500|14500|15800|14500|FALSCH|0|6362|-8138|990|0|0|1|0
11|1|1|0|20|22042013|12:40:00|2|30.OS(0,1,OS).avi|0,1,1|0|1|1|1000|9000|7300|7300|FALSCH|0|10116|2816|893|0|0|1|0
11|1|1|0|21|22042013|12:40:00|2|32.WA(0,0,OS).avi|0,0,0|0|0|0|4500|11000|9500|9500|FALSCH|0|10646|1146|2434|0|0|1|0
11|1|1|0|22|22042013|12:40:00|2|02.WA(1,0,BV).avi|1,0,0|1|0|0|3000|13500|10300|13500|FALSCH|0|14437|937|1093|0|0|1|0
11|1|1|0|23|22042013|12:41:00|2|18.WA(1,1,OS).avi|1,1,0|1|1|0|2500|10500|8100|10500|WAHR|0|13866|3366|856|1|0|0|0
11|1|1|0|24|22042013|12:41:00|2|26.OS(0,1,BV).avi|0,1,0|0|1|0|1500|10000|7300|7300|FALSCH|0|10463|3163|1285|0|0|1|0
11|1|1|0|25|22042013|12:41:00|2|04.WA(1,0,WA).avi|1,0,1|1|0|1|3000|13500|10300|10300|FALSCH|1|15182|4882|880|0|1|0|0
11|1|1|0|26|22042013|12:42:00|2|43.OS(0,0,WA).avi|0,0,0|0|0|0|2500|12500|12000|12000|FALSCH|0|21798|9798|897|0|0|1|0
11|1|1|0|27|22042013|12:42:00|2|42.BV(1,1,BV).avi|1,1,1|1|1|1|2500|11500|11500|11500|WAHR|0|14897|3397|840|1|0|0|0
11|1|1|0|28|22042013|12:42:00|2|23.BV(1,1,OS).avi|1,1,0|1|1|0|2500|11500|11500|11500|WAHR|0|15793|4293|1983|1|0|0|0
11|1|1|0|29|22042013|12:43:00|2|29.OS(1,0,OS).avi|1,0,1|1|0|1|1500|12000|7800|7800|FALSCH|1|14315|6515|982|0|1|0|0
11|1|1|0|30|22042013|12:43:00|2|08.BV(1,1,WA).avi|1,1,0|1|1|0|2500|11500|11500|11500|WAHR|0|15725|4225|873|1|0|0|0
11|1|1|0|31|22042013|12:43:00|2|13.OS(1,1,WA).avi|1,1,0|1|1|0|1500|11000|9800|11000|WAHR|0|13844|2844|1007|1|0|0|0
11|1|1|0|32|22042013|12:44:00|2|19.WA(1,0,WA).avi|1,0,1|1|0|1|3000|13500|10300|10300|FALSCH|1|23361|13061|1577|0|1|0|0
11|1|1|0|33|22042013|12:44:00|2|24.BV(1,0,BV).avi|1,0,1|1|0|1|2500|12000|10699|10699|FALSCH|1|18017|7318|4321|0|1|0|0
11|1|1|0|34|22042013|12:45:00|2|22.BV(1,0,OS).avi|1,0,0|1|0|0|2500|12000|10699|12000|FALSCH|0|30423|18423|1742|0|0|1|0
11|1|1|0|35|22042013|12:46:00|2|09.BV(1,0,BV).avi|1,0,1|1|0|1|2500|12000|10699|10699|FALSCH|1|27857|17158|2286|0|1|0|0
11|1|1|0|36|22042013|12:46:00|2|06.BV(0,1,WA).avi|0,1,0|0|1|0|3000|10500|10199|10199|FALSCH|0|15185|4986|7435|0|0|1|0
11|1|1|0|37|22042013|12:46:00|2|11.OS(0,1,WA).avi|0,1,0|0|1|0|1500|10000|7300|7300|FALSCH|0|9912|2612|827|0|0|1|0
11|1|1|0|38|22042013|12:47:00|2|12.OS(1,0,WA).avi|1,0,0|1|0|0|1500|12000|7800|12000|FALSCH|0|17808|5808|811|0|0|1|0
11|1|1|0|39|22042013|12:47:00|2|15.OS(0,1,OS).avi|0,1,1|0|1|1|1000|9000|7300|7300|FALSCH|0|5712|-1588|874|0|0|1|0
11|1|1|0|40|22042013|12:47:00|2|05.WA(0,1,WA).avi|0,1,1|0|1|1|3500|10500|10100|10100|FALSCH|0|15162|5062|843|0|0|1|0
11|1|1|0|41|22042013|12:47:00|2|25.BV(0,1,BV).avi|0,1,1|0|1|1|1500|12000|10300|10300|FALSCH|0|12513|2213|1080|0|0|1|0
11|1|1|0|42|22042013|12:48:00|2|29.OS(1,0,OS).avi|1,0,1|1|0|1|1500|12000|7800|7800|FALSCH|1|11679|3879|738|0|1|0|0
11|1|1|0|43|22042013|12:48:00|2|47.OS(1,1,OS).avi|1,1,1|1|1|1|1500|11000|9800|9800|WAHR|0|14483|4683|526|1|0|0|0
11|1|1|0|44|22042013|12:48:00|2|04.WA(1,0,WA).avi|1,0,1|1|0|1|3000|13500|10300|10300|WAHR|0|16752|6452|778|1|0|0|0
11|1|1|0|45|22042013|12:49:00|2|42.BV(1,1,BV).avi|1,1,1|1|1|1|2500|11500|11500|11500|WAHR|0|15478|3978|506|1|0|0|0
11|1|1|0|46|22042013|12:49:00|2|19.WA(1,0,WA).avi|1,0,1|1|0|1|3000|13500|10300|10300|FALSCH|1|22297|11997|884|0|1|0|0
11|1|1|0|47|22042013|12:49:00|2|14.OS(1,0,OS).avi|1,0,1|1|0|1|1500|12000|7800|7800|FALSCH|1|13294|5494|446|0|1|0|0
11|1|1|0|48|22042013|12:50:00|2|36.WA(1,1,WA).avi|1,1,1|1|1|1|2500|10500|8100|8100|WAHR|0|13851|5751|517|1|0|0|0
11|1|1|0|49|22042013|12:50:00|2|19.WA(1,0,WA).avi|1,0,1|1|0|1|3000|13500|10300|10300|WAHR|0|13403|3103|463|1|0|0|0
11|1|1|0|50|22042013|12:50:00|2|14.OS(1,0,OS).avi|1,0,1|1|0|1|1500|12000|7800|7800|WAHR|0|16830|9030|423|1|0|0|0
11|1|1|0|51|22042013|12:51:00|2|09.BV(1,0,BV).avi|1,0,1|1|0|1|2500|12000|10699|10699|FALSCH|1|20650|9951|428|0|1|0|0
11|1|1|0|52|22042013|12:51:00|2|04.WA(1,0,WA).avi|1,0,1|1|0|1|3000|13500|10300|10300|WAHR|0|16848|6548|371|1|0|0|0
11|1|1|0|53|22042013|12:51:00|2|24.BV(1,0,BV).avi|1,0,1|1|0|1|2500|12000|10699|10699|WAHR|0|16618|5919|430|1|0|0|0
11|1|1|0|54|22042013|12:52:00|2|04.WA(1,0,WA).avi|1,0,1|1|0|1|3000|13500|10300|10300|WAHR|0|12433|2133|382|1|0|0|0
11|1|1|0|55|22042013|12:52:00|2|09.BV(1,0,BV).avi|1,0,1|1|0|1|2500|12000|10699|10699|WAHR|0|14576|3877|341|1|0|0|0
11|1|1|0|56|22042013|12:52:00|2|29.OS(1,0,OS).avi|1,0,1|1|0|1|1500|12000|7800|7800|WAHR|0|9135|1335|682|1|0|0|0
12|3|3|1|1|22042013|12:35:00|3|27.OS(1,0,BV).avi|1,0,0|1|0|0|1500|12000|7800|12000|FALSCH|0|30404|18404|15017|0|0|1|0
12|3|3|1|2|22042013|12:36:00|3|15.OS(0,1,OS).avi|0,1,1|0|1|1|1000|9000|7300|7300|FALSCH|0|16922|9622|15018|0|0|1|0
12|3|3|1|3|22042013|12:37:00|3|43.OS(0,0,WA).avi|0,0,0|0|0|0|2500|12500|12000|12000|FALSCH|0|29727|17727|15020|0|0|1|0
12|3|3|1|4|22042013|12:38:00|3|38.BV(0,0,OS).avi|0,0,0|0|0|0|2500|14500|15800|14500|FALSCH|0|29816|15316|15019|0|0|1|0
12|3|3|1|5|22042013|12:38:00|3|05.WA(0,1,WA).avi|0,1,1|0|1|1|3500|10500|10100|10100|FALSCH|0|17025|6925|15009|0|0|1|0
12|3|3|1|6|22042013|12:39:00|3|34.WA(0,0,WA).avi|0,0,1|0|0|1|4500|11000|9500|9500|FALSCH|0|29900|20400|15015|0|0|1|0
12|3|3|1|7|22042013|12:40:00|3|19.WA(1,0,WA).avi|1,0,1|1|0|1|3000|13500|10300|10300|FALSCH|1|30323|20023|15013|0|1|0|0
12|3|3|1|8|22042013|12:41:00|3|16.WA(0,1,OS).avi|0,1,0|0|1|0|5000|11000|10000|10000|FALSCH|0|17027|7027|15022|0|0|1|0
12|3|3|1|9|22042013|12:41:00|3|46.OS(0,0,OS).avi|0,0,1|0|0|1|2500|12500|12000|12000|FALSCH|0|29771|17771|15008|0|0|1|0
12|3|3|1|10|22042013|12:42:00|3|03.WA(1,1,BV).avi|1,1,0|1|1|0|2500|10500|8100|10500|FALSCH|1|16442|5942|15019|0|1|0|0
12|3|3|1|11|22042013|12:43:00|3|31.WA(0,0,BV).avi|0,0,0|0|0|0|4500|11000|9500|9500|FALSCH|0|29887|20387|15019|0|0|1|0
12|3|3|1|12|22042013|12:44:00|3|43.OS(0,0,WA).avi|0,0,0|0|0|0|2500|12500|12000|12000|FALSCH|0|29681|17681|15017|0|0|1|0
12|3|3|1|13|22042013|12:44:00|3|29.OS(1,0,OS).avi|1,0,1|1|0|1|1500|12000|7800|7800|WAHR|0|21241|13441|15008|1|0|0|0
12|3|3|1|14|22042013|12:45:00|3|17.WA(1,0,OS).avi|1,0,0|1|0|0|3000|13500|10300|13500|FALSCH|0|24671|11171|15023|0|0|1|0
12|3|3|1|15|22042013|12:46:00|3|46.OS(0,0,OS).avi|0,0,1|0|0|1|2500|12500|12000|12000|FALSCH|0|21096|9096|15016|0|0|1|0
12|3|3|1|16|22042013|12:46:00|3|08.BV(1,1,WA).avi|1,1,0|1|1|0|2500|11500|11500|11500|WAHR|0|13983|2483|15006|1|0|0|0
12|3|3|1|17|22042013|12:47:00|3|29.OS(1,0,OS).avi|1,0,1|1|0|1|1500|12000|7800|7800|WAHR|0|15735|7935|15021|1|0|0|0
12|3|3|1|18|22042013|12:48:00|3|24.BV(1,0,BV).avi|1,0,1|1|0|1|2500|12000|10699|10699|WAHR|0|12607|1908|15017|1|0|0|0
12|3|3|1|19|22042013|12:48:00|3|19.WA(1,0,WA).avi|1,0,1|1|0|1|3000|13500|10300|10300|WAHR|0|11678|1378|15009|1|0|0|0
12|3|3|1|20|22042013|12:49:00|3|26.OS(0,1,BV).avi|0,1,0|0|1|0|1500|10000|7300|7300|FALSCH|0|10080|2780|15019|0|0|1|0
12|3|3|1|21|22042013|12:49:00|3|12.OS(1,0,WA).avi|1,0,0|1|0|0|1500|12000|7800|12000|FALSCH|0|20859|8859|15019|0|0|1|0
12|3|3|1|22|22042013|12:50:00|3|28.OS(1,1,BV).avi|1,1,0|1|1|0|1500|11000|9800|11000|WAHR|0|12191|1191|15015|1|0|0|0
12|3|3|1|23|22042013|12:50:00|3|29.OS(1,0,OS).avi|1,0,1|1|0|1|1500|12000|7800|7800|WAHR|0|14039|6239|15024|1|0|0|0
12|3|3|1|24|22042013|12:51:00|3|44.OS(0,0,BV).avi|0,0,0|0|0|0|2500|12500|12000|12000|FALSCH|0|16616|4616|15015|0|0|1|0
12|3|3|1|25|22042013|12:52:00|3|17.WA(1,0,OS).avi|1,0,0|1|0|0|3000|13500|10300|13500|FALSCH|0|18383|4883|15021|0|0|1|0
12|3|3|1|26|22042013|12:52:00|3|25.BV(0,1,BV).avi|0,1,1|0|1|1|1500|12000|10300|10300|WAHR|1|11832|1532|15014|0|0|0|1
12|3|3|1|27|22042013|12:53:00|3|39.BV(0,0,BV).avi|0,0,1|0|0|1|2500|14500|15800|14500|FALSCH|0|18407|3907|15008|0|0|1|0
12|3|3|1|28|22042013|12:53:00|3|25.BV(0,1,BV).avi|0,1,1|0|1|1|1500|12000|10300|10300|FALSCH|0|11991|1691|15023|0|0|1|0
12|3|3|1|29|22042013|12:54:00|3|34.WA(0,0,WA).avi|0,0,1|0|0|1|4500|11000|9500|9500|FALSCH|0|16543|7043|15014|0|0|1|0
12|3|3|1|30|22042013|12:55:00|3|15.OS(0,1,OS).avi|0,1,1|0|1|1|1000|9000|7300|7300|FALSCH|0|10328|3028|15019|0|0|1|0
12|3|3|1|31|22042013|12:55:00|3|07.BV(1,0,WA).avi|1,0,0|1|0|0|2500|12000|10699|12000|FALSCH|0|20399|8399|15016|0|0|1|0
12|3|3|1|32|22042013|12:56:00|3|41.BV(1,1,BV).avi|1,1,1|1|1|1|2500|11500|11500|11500|WAHR|0|12999|1499|15009|1|0|0|0
12|3|3|1|33|22042013|12:56:00|3|28.OS(1,1,BV).avi|1,1,0|1|1|0|1500|11000|9800|11000|WAHR|0|12752|1752|15009|1|0|0|0
12|3|3|1|34|22042013|12:57:00|3|18.WA(1,1,OS).avi|1,1,0|1|1|0|2500|10500|8100|10500|WAHR|0|13312|2812|15011|1|0|0|0
12|3|3|1|35|22042013|12:58:00|3|42.BV(1,1,BV).avi|1,1,1|1|1|1|2500|11500|11500|11500|WAHR|0|13233|1733|15004|1|0|0|0
12|3|3|1|36|22042013|12:58:00|3|06.BV(0,1,WA).avi|0,1,0|0|1|0|3000|10500|10199|10199|FALSCH|0|12240|2041|1735|0|0|1|0
12|3|3|1|37|22042013|12:58:00|3|18.WA(1,1,OS).avi|1,1,0|1|1|0|2500|10500|8100|10500|WAHR|0|12967|2467|1221|1|0|0|0
12|3|3|1|38|22042013|12:59:00|3|05.WA(0,1,WA).avi|0,1,1|0|1|1|3500|10500|10100|10100|FALSCH|0|13879|3779|4037|0|0|1|0
12|3|3|1|39|22042013|12:59:00|3|21.BV(0,1,OS).avi|0,1,0|0|1|0|3000|10500|10199|10199|FALSCH|0|12231|2032|1774|0|0|1|0
12|3|3|1|40|22042013|12:59:00|3|35.WA(1,1,WA).avi|1,1,1|1|1|1|2000|10500|8100|8100|WAHR|0|12784|4684|1090|1|0|0|0
12|3|3|1|41|22042013|12:59:00|3|47.OS(1,1,OS).avi|1,1,1|1|1|1|1500|11000|9800|9800|WAHR|0|12591|2791|1087|1|0|0|0
12|3|3|1|42|22042013|13:00:00|3|16.WA(0,1,OS).avi|0,1,0|0|1|0|5000|11000|10000|10000|FALSCH|0|13112|3112|2643|0|0|1|0
12|3|3|1|43|22042013|13:00:00|3|47.OS(1,1,OS).avi|1,1,1|1|1|1|1500|11000|9800|9800|WAHR|0|13584|3784|9996|1|0|0|0
12|3|3|1|44|22042013|13:00:00|3|05.WA(0,1,WA).avi|0,1,1|0|1|1|3500|10500|10100|10100|FALSCH|0|12120|2020|1358|0|0|1|0
12|3|3|1|45|22042013|13:01:00|3|15.OS(0,1,OS).avi|0,1,1|0|1|1|1000|9000|7300|7300|FALSCH|0|9775|2475|1918|0|0|1|0
13|2|2|1|1|22042013|12:42:00|1|30.OS(0,1,OS).avi|0,1,1|0|1|1|1000|9000|7300|7300|FALSCH|0|13854|6554|15029|0|0|1|0
13|2|2|1|2|22042013|12:43:00|1|08.BV(1,1,WA).avi|1,1,0|1|1|0|2500|11500|11500|11500|FALSCH|1|10091|-1409|15006|0|1|0|0
13|2|2|1|3|22042013|12:43:00|1|05.WA(0,1,WA).avi|0,1,1|0|1|1|3500|10500|10100|10100|WAHR|1|12179|2079|15005|0|0|0|1
13|2|2|1|4|22042013|12:44:00|1|14.OS(1,0,OS).avi|1,0,1|1|0|1|1500|12000|7800|7800|FALSCH|1|5447|-2353|15014|0|1|0|0
13|2|2|1|5|22042013|12:44:00|1|21.BV(0,1,OS).avi|0,1,0|0|1|0|3000|10500|10199|10199|WAHR|1|13406|3207|15001|0|0|0|1
13|2|2|1|6|22042013|12:45:00|1|31.WA(0,0,BV).avi|0,0,0|0|0|0|4500|11000|9500|9500|FALSCH|0|13019|3519|15003|0|0|1|0
13|2|2|1|7|22042013|12:46:00|1|24.BV(1,0,BV).avi|1,0,1|1|0|1|2500|12000|10699|10699|FALSCH|1|12111|1412|15001|0|1|0|0
13|2|2|1|8|22042013|12:46:00|1|42.BV(1,1,BV).avi|1,1,1|1|1|1|2500|11500|11500|11500|WAHR|0|13834|2334|15009|1|0|0|0
13|2|2|1|9|22042013|12:47:00|1|18.WA(1,1,OS).avi|1,1,0|1|1|0|2500|10500|8100|10500|WAHR|0|12947|2447|15001|1|0|0|0
13|2|2|1|10|22042013|12:47:00|1|24.BV(1,0,BV).avi|1,0,1|1|0|1|2500|12000|10699|10699|FALSCH|1|13907|3208|15013|0|1|0|0
13|2|2|1|11|22042013|12:48:00|1|07.BV(1,0,WA).avi|1,0,0|1|0|0|2500|12000|10699|12000|WAHR|1|13549|1549|15018|0|0|0|1
13|2|2|1|12|22042013|12:48:00|1|27.OS(1,0,BV).avi|1,0,0|1|0|0|1500|12000|7800|12000|FALSCH|0|16624|4624|15002|0|0|1|0
13|2|2|1|13|22042013|12:49:00|1|19.WA(1,0,WA).avi|1,0,1|1|0|1|3000|13500|10300|10300|FALSCH|1|18235|7935|15018|0|1|0|0
13|2|2|1|14|22042013|12:49:00|1|32.WA(0,0,OS).avi|0,0,0|0|0|0|4500|11000|9500|9500|FALSCH|0|12507|3007|2474|0|0|1|0
13|2|2|1|15|22042013|12:50:00|1|29.OS(1,0,OS).avi|1,0,1|1|0|1|1500|12000|7800|7800|WAHR|0|10948|3148|2017|1|0|0|0
13|2|2|1|16|22042013|12:50:00|1|26.OS(0,1,BV).avi|0,1,0|0|1|0|1500|10000|7300|7300|FALSCH|0|9214|1914|1941|0|0|1|0
13|2|2|1|17|22042013|12:50:00|1|21.BV(0,1,OS).avi|0,1,0|0|1|0|3000|10500|10199|10199|FALSCH|0|12316|2117|1103|0|0|1|0
13|2|2|1|18|22042013|12:51:00|1|34.WA(0,0,WA).avi|0,0,1|0|0|1|4500|11000|9500|9500|FALSCH|0|11422|1922|1634|0|0|1|0
13|2|2|1|19|22042013|12:51:00|1|16.WA(0,1,OS).avi|0,1,0|0|1|0|5000|11000|10000|10000|FALSCH|0|14515|4515|2016|0|0|1|0
13|2|2|1|20|22042013|12:51:00|1|06.BV(0,1,WA).avi|0,1,0|0|1|0|3000|10500|10199|10199|FALSCH|0|13260|3061|15021|0|0|1|0
13|2|2|1|21|22042013|12:52:00|1|40.BV(0,0,BV).avi|0,0,1|0|0|1|2500|14500|15800|14500|FALSCH|0|16998|2498|15004|0|0|1|0
13|2|2|1|22|22042013|12:53:00|1|30.OS(0,1,OS).avi|0,1,1|0|1|1|1000|9000|7300|7300|FALSCH|0|9596|2296|2047|0|0|1|0
13|2|2|1|23|22042013|12:53:00|1|16.WA(0,1,OS).avi|0,1,0|0|1|0|5000|11000|10000|10000|FALSCH|0|12468|2468|2163|0|0|1|0
13|2|2|1|24|22042013|12:53:00|1|12.OS(1,0,WA).avi|1,0,0|1|0|0|1500|12000|7800|12000|FALSCH|0|13316|1316|2340|0|0|1|0
13|2|2|1|25|22042013|12:54:00|1|30.OS(0,1,OS).avi|0,1,1|0|1|1|1000|9000|7300|7300|FALSCH|0|10244|2944|947|0|0|1|0
13|2|2|1|26|22042013|12:54:00|1|28.OS(1,1,BV).avi|1,1,0|1|1|0|1500|11000|9800|11000|WAHR|0|13051|2051|1395|1|0|0|0
13|2|2|1|27|22042013|12:54:00|1|34.WA(0,0,WA).avi|0,0,1|0|0|1|4500|11000|9500|9500|FALSCH|0|11220|1720|1567|0|0|1|0
13|2|2|1|28|22042013|12:54:00|1|07.BV(1,0,WA).avi|1,0,0|1|0|0|2500|12000|10699|12000|FALSCH|0|14291|2291|1733|0|0|1|0
13|2|2|1|29|22042013|12:55:00|1|19.WA(1,0,WA).avi|1,0,1|1|0|1|3000|13500|10300|10300|FALSCH|1|14716|4416|1765|0|1|0|0
13|2|2|1|30|22042013|12:55:00|1|02.WA(1,0,BV).avi|1,0,0|1|0|0|3000|13500|10300|13500|FALSCH|0|19556|6056|2470|0|0|1|0
13|2|2|1|31|22042013|12:55:00|1|27.OS(1,0,BV).avi|1,0,0|1|0|0|1500|12000|7800|12000|FALSCH|0|12604|604|838|0|0|1|0
13|2|2|1|32|22042013|12:56:00|1|03.WA(1,1,BV).avi|1,1,0|1|1|0|2500|10500|8100|10500|WAHR|0|12540|2040|981|1|0|0|0
13|2|2|1|33|22042013|12:56:00|1|30.OS(0,1,OS).avi|0,1,1|0|1|1|1000|9000|7300|7300|FALSCH|0|8988|1688|1616|0|0|1|0
13|2|2|1|34|22042013|12:56:00|1|14.OS(1,0,OS).avi|1,0,1|1|0|1|1500|12000|7800|7800|WAHR|0|13308|5508|1684|1|0|0|0
13|2|2|1|35|22042013|12:57:00|1|41.BV(1,1,BV).avi|1,1,1|1|1|1|2500|11500|11500|11500|WAHR|0|12691|1191|937|1|0|0|0
13|2|2|1|36|22042013|12:57:00|1|25.BV(0,1,BV).avi|0,1,1|0|1|1|1500|12000|10300|10300|FALSCH|0|11726|1426|998|0|0|1|0
13|2|2|1|37|22042013|12:57:00|1|32.WA(0,0,OS).avi|0,0,0|0|0|0|4500|11000|9500|9500|FALSCH|0|10979|1479|960|0|0|1|0
13|2|2|1|38|22042013|12:57:00|1|04.WA(1,0,WA).avi|1,0,1|1|0|1|3000|13500|10300|10300|FALSCH|1|15243|4943|957|0|1|0|0
13|2|2|1|39|22042013|12:58:00|1|47.OS(1,1,OS).avi|1,1,1|1|1|1|1500|11000|9800|9800|WAHR|0|11955|2155|1005|1|0|0|0
13|2|2|1|40|22042013|12:58:00|1|23.BV(1,1,OS).avi|1,1,0|1|1|0|2500|11500|11500|11500|WAHR|0|13748|2248|1919|1|0|0|0
13|2|2|1|41|22042013|12:58:00|1|30.OS(0,1,OS).avi|0,1,1|0|1|1|1000|9000|7300|7300|FALSCH|0|8540|1240|1640|0|0|1|0
13|2|2|1|42|22042013|12:59:00|1|38.BV(0,0,OS).avi|0,0,0|0|0|0|2500|14500|15800|14500|WAHR|1|15740|1240|1589|0|0|0|1
13|2|2|1|43|22042013|12:59:00|1|42.BV(1,1,BV).avi|1,1,1|1|1|1|2500|11500|11500|11500|WAHR|0|13564|2064|612|1|0|0|0
13|2|2|1|44|22042013|12:59:00|1|44.OS(0,0,BV).avi|0,0,0|0|0|0|2500|12500|12000|12000|FALSCH|0|16435|4435|2480|0|0|1|0
13|2|2|1|45|22042013|13:00:00|1|19.WA(1,0,WA).avi|1,0,1|1|0|1|3000|13500|10300|10300|FALSCH|1|18592|8292|1778|0|1|0|0
13|2|2|1|46|22042013|13:00:00|1|44.OS(0,0,BV).avi|0,0,0|0|0|0|2500|12500|12000|12000|WAHR|1|18187|6187|949|0|0|0|1
13|2|2|1|47|22042013|13:00:00|1|09.BV(1,0,BV).avi|1,0,1|1|0|1|2500|12000|10699|10699|FALSCH|1|14068|3369|1636|0|1|0|0
13|2|2|1|48|22042013|13:01:00|1|34.WA(0,0,WA).avi|0,0,1|0|0|1|4500|11000|9500|9500|FALSCH|0|10875|1375|1664|0|0|1|0
13|2|2|1|49|22042013|13:01:00|1|04.WA(1,0,WA).avi|1,0,1|1|0|1|3000|13500|10300|10300|WAHR|0|16787|6487|3168|1|0|0|0
13|2|2|1|50|22042013|13:02:00|1|09.BV(1,0,BV).avi|1,0,1|1|0|1|2500|12000|10699|10699|WAHR|0|15412|4713|1664|1|0|0|0
13|2|2|1|51|22042013|13:02:00|1|19.WA(1,0,WA).avi|1,0,1|1|0|1|3000|13500|10300|10300|WAHR|0|16627|6327|1733|1|0|0|0
13|2|2|1|52|22042013|13:02:00|1|36.WA(1,1,WA).avi|1,1,1|1|1|1|2500|10500|8100|8100|WAHR|0|12244|4144|1324|1|0|0|0
13|2|2|1|53|22042013|13:02:00|1|32.WA(0,0,OS).avi|0,0,0|0|0|0|4500|11000|9500|9500|FALSCH|0|11036|1536|1100|0|0|1|0
13|2|2|1|54|22042013|13:03:00|1|23.BV(1,1,OS).avi|1,1,0|1|1|0|2500|11500|11500|11500|WAHR|0|12716|1216|1042|1|0|0|0
13|2|2|1|55|22042013|13:03:00|1|43.OS(0,0,WA).avi|0,0,0|0|0|0|2500|12500|12000|12000|WAHR|1|15284|3284|830|0|0|0|1
13|2|2|1|56|22042013|13:03:00|1|37.BV(0,0,WA).avi|0,0,0|0|0|0|2500|14500|15800|14500|FALSCH|0|17011|2511|1532|0|0|1|0
13|2|2|1|57|22042013|13:04:00|1|33.WA(0,0,WA).avi|0,0,1|0|0|1|4500|11000|9500|9500|FALSCH|0|10595|1095|1770|0|0|1|0
13|2|2|1|58|22042013|13:04:00|1|09.BV(1,0,BV).avi|1,0,1|1|0|1|2500|12000|10699|10699|WAHR|0|11972|1273|1891|1|0|0|0
13|2|2|1|59|22042013|13:04:00|1|43.OS(0,0,WA).avi|0,0,0|0|0|0|2500|12500|12000|12000|WAHR|1|14579|2579|1704|0|0|0|1
13|2|2|1|60|22042013|13:05:00|1|37.BV(0,0,WA).avi|0,0,0|0|0|0|2500|14500|15800|14500|FALSCH|0|16964|2464|1667|0|0|1|0
13|2|2|1|61|22042013|13:05:00|1|44.OS(0,0,BV).avi|0,0,0|0|0|0|2500|12500|12000|12000|FALSCH|0|14899|2899|1496|0|0|1|0
13|2|2|1|62|22042013|13:05:00|1|32.WA(0,0,OS).avi|0,0,0|0|0|0|4500|11000|9500|9500|FALSCH|0|10276|776|1016|0|0|1|0
13|2|2|1|63|22042013|13:06:00|1|14.OS(1,0,OS).avi|1,0,1|1|0|1|1500|12000|7800|7800|WAHR|0|9917|2117|909|1|0|0|0
13|2|2|1|64|22042013|13:06:00|1|44.OS(0,0,BV).avi|0,0,0|0|0|0|2500|12500|12000|12000|FALSCH|0|13963|1963|1033|0|0|1|0
13|2|2|1|65|22042013|13:06:00|1|32.WA(0,0,OS).avi|0,0,0|0|0|0|4500|11000|9500|9500|FALSCH|0|10227|727|631|0|0|1|0
14|3|3|1|1|22042013|14:25:00|2|18.WA(1,1,OS).avi|1,1,0|1|1|0|2500|10500|8100|10500|FALSCH|1|17048|6548|15019|0|1|0|0
14|3|3|1|2|22042013|14:25:00|2|06.BV(0,1,WA).avi|0,1,0|0|1|0|3000|10500|10199|10199|FALSCH|0|15307|5108|4760|0|0|1|0
14|3|3|1|3|22042013|14:26:00|2|39.BV(0,0,BV).avi|0,0,1|0|0|1|2500|14500|15800|14500|FALSCH|0|17281|2781|1659|0|0|1|0
14|3|3|1|4|22042013|14:26:00|2|33.WA(0,0,WA).avi|0,0,1|0|0|1|4500|11000|9500|9500|FALSCH|0|11897|2397|1263|0|0|1|0
14|3|3|1|5|22042013|14:26:00|2|41.BV(1,1,BV).avi|1,1,1|1|1|1|2500|11500|11500|11500|WAHR|0|14595|3095|2067|1|0|0|0
14|3|3|1|6|22042013|14:27:00|2|35.WA(1,1,WA).avi|1,1,1|1|1|1|2000|10500|8100|8100|WAHR|0|13216|5116|1121|1|0|0|0
14|3|3|1|7|22042013|14:27:00|2|09.BV(1,0,BV).avi|1,0,1|1|0|1|2500|12000|10699|10699|FALSCH|1|12844|2145|9073|0|1|0|0
14|3|3|1|8|22042013|14:27:00|2|06.BV(0,1,WA).avi|0,1,0|0|1|0|3000|10500|10199|10199|FALSCH|0|12389|2190|724|0|0|1|0
14|3|3|1|9|22042013|14:28:00|2|14.OS(1,0,OS).avi|1,0,1|1|0|1|1500|12000|7800|7800|WAHR|0|14733|6933|5183|1|0|0|0
14|3|3|1|10|22042013|14:28:00|2|07.BV(1,0,WA).avi|1,0,0|1|0|0|2500|12000|10699|12000|FALSCH|0|14365|2365|980|0|0|1|0
14|3|3|1|11|22042013|14:29:00|2|13.OS(1,1,WA).avi|1,1,0|1|1|0|1500|11000|9800|11000|FALSCH|1|11469|469|15001|0|1|0|0
14|3|3|1|12|22042013|14:29:00|2|09.BV(1,0,BV).avi|1,0,1|1|0|1|2500|12000|10699|10699|WAHR|0|14075|3376|15005|1|0|0|0
14|3|3|1|13|22042013|14:30:00|2|21.BV(0,1,OS).avi|0,1,0|0|1|0|3000|10500|10199|10199|FALSCH|0|14422|4223|2066|0|0|1|0
14|3|3|1|14|22042013|14:30:00|2|16.WA(0,1,OS).avi|0,1,0|0|1|0|5000|11000|10000|10000|FALSCH|0|11834|1834|795|0|0|1|0
14|3|3|1|15|22042013|14:30:00|2|29.OS(1,0,OS).avi|1,0,1|1|0|1|1500|12000|7800|7800|WAHR|0|11313|3513|2270|1|0|0|0
14|3|3|1|16|22042013|14:31:00|2|04.WA(1,0,WA).avi|1,0,1|1|0|1|3000|13500|10300|10300|WAHR|0|11719|1419|844|1|0|0|0
14|3|3|1|17|22042013|14:31:00|2|09.BV(1,0,BV).avi|1,0,1|1|0|1|2500|12000|10699|10699|WAHR|0|11828|1129|1142|1|0|0|0
14|3|3|1|18|22042013|14:31:00|2|27.OS(1,0,BV).avi|1,0,0|1|0|0|1500|12000|7800|12000|WAHR|1|10376|-1624|6903|0|0|0|1
14|3|3|1|19|22042013|14:32:00|2|03.WA(1,1,BV).avi|1,1,0|1|1|0|2500|10500|8100|10500|WAHR|0|12939|2439|1263|1|0|0|0
14|3|3|1|20|22042013|14:32:00|2|36.WA(1,1,WA).avi|1,1,1|1|1|1|2500|10500|8100|8100|WAHR|0|10454|2354|641|1|0|0|0
14|3|3|1|21|22042013|14:32:00|2|46.OS(0,0,OS).avi|0,0,1|0|0|1|2500|12500|12000|12000|WAHR|1|14442|2442|2580|0|0|0|1
14|3|3|1|22|22042013|14:33:00|2|37.BV(0,0,WA).avi|0,0,0|0|0|0|2500|14500|15800|14500|FALSCH|0|17009|2509|7609|0|0|1|0
14|3|3|1|23|22042013|14:33:00|2|12.OS(1,0,WA).avi|1,0,0|1|0|0|1500|12000|7800|12000|FALSCH|0|17298|5298|13232|0|0|1|0
14|3|3|1|24|22042013|14:34:00|2|46.OS(0,0,OS).avi|0,0,1|0|0|1|2500|12500|12000|12000|FALSCH|0|21279|9279|1066|0|0|1|0
14|3|3|1|25|22042013|14:34:00|2|06.BV(0,1,WA).avi|0,1,0|0|1|0|3000|10500|10199|10199|FALSCH|0|11696|1497|773|0|0|1|0
14|3|3|1|26|22042013|14:35:00|2|27.OS(1,0,BV).avi|1,0,0|1|0|0|1500|12000|7800|12000|WAHR|1|22701|10701|8452|0|0|0|1
14|3|3|1|27|22042013|14:35:00|2|07.BV(1,0,WA).avi|1,0,0|1|0|0|2500|12000|10699|12000|FALSCH|0|16450|4450|3994|0|0|1|0
14|3|3|1|28|22042013|14:35:00|2|48.OS(1,1,OS).avi|1,1,1|1|1|1|1500|11000|9800|9800|WAHR|0|13629|3829|1514|1|0|0|0
14|3|3|1|29|22042013|14:36:00|2|07.BV(1,0,WA).avi|1,0,0|1|0|0|2500|12000|10699|12000|FALSCH|0|13129|1129|1132|0|0|1|0
14|3|3|1|30|22042013|14:36:00|2|05.WA(0,1,WA).avi|0,1,1|0|1|1|3500|10500|10100|10100|FALSCH|0|11847|1747|833|0|0|1|0
14|3|3|1|31|22042013|14:36:00|2|15.OS(0,1,OS).avi|0,1,1|0|1|1|1000|9000|7300|7300|FALSCH|0|10562|3262|1438|0|0|1|0
14|3|3|1|32|22042013|14:36:00|2|20.WA(0,1,WA).avi|0,1,1|0|1|1|3500|10500|10100|10100|FALSCH|0|11513|1413|877|0|0|1|0
14|3|3|1|33|22042013|14:37:00|2|36.WA(1,1,WA).avi|1,1,1|1|1|1|2500|10500|8100|8100|WAHR|0|12878|4778|880|1|0|0|0
14|3|3|1|34|22042013|14:37:00|2|33.WA(0,0,WA).avi|0,0,1|0|0|1|4500|11000|9500|9500|FALSCH|0|10486|986|970|0|0|1|0
14|3|3|1|35|22042013|14:37:00|2|44.OS(0,0,BV).avi|0,0,0|0|0|0|2500|12500|12000|12000|FALSCH|0|11509|-491|1226|0|0|1|0
14|3|3|1|36|22042013|14:38:00|2|43.OS(0,0,WA).avi|0,0,0|0|0|0|2500|12500|12000|12000|FALSCH|0|10387|-1613|1096|0|0|1|0
14|3|3|1|37|22042013|14:38:00|2|37.BV(0,0,WA).avi|0,0,0|0|0|0|2500|14500|15800|14500|FALSCH|0|10839|-3661|739|0|0|1|0
14|3|3|1|38|22042013|14:38:00|2|31.WA(0,0,BV).avi|0,0,0|0|0|0|4500|11000|9500|9500|FALSCH|0|11211|1711|700|0|0|1|0
14|3|3|1|39|22042013|14:38:00|2|13.OS(1,1,WA).avi|1,1,0|1|1|0|1500|11000|9800|11000|WAHR|0|13139|2139|1494|1|0|0|0
14|3|3|1|40|22042013|14:39:00|2|08.BV(1,1,WA).avi|1,1,0|1|1|0|2500|11500|11500|11500|WAHR|0|14701|3201|713|1|0|0|0
14|3|3|1|41|22042013|14:39:00|2|22.BV(1,0,OS).avi|1,0,0|1|0|0|2500|12000|10699|12000|FALSCH|0|12945|945|789|0|0|1|0
14|3|3|1|42|22042013|14:39:00|2|23.BV(1,1,OS).avi|1,1,0|1|1|0|2500|11500|11500|11500|WAHR|0|14633|3133|8660|1|0|0|0
14|3|3|1|43|22042013|14:40:00|2|28.OS(1,1,BV).avi|1,1,0|1|1|0|1500|11000|9800|11000|WAHR|0|13880|2880|1195|1|0|0|0
14|3|3|1|44|22042013|14:40:00|2|02.WA(1,0,BV).avi|1,0,0|1|0|0|3000|13500|10300|13500|FALSCH|0|14230|730|721|0|0|1|0
14|3|3|1|45|22042013|14:40:00|2|25.BV(0,1,BV).avi|0,1,1|0|1|1|1500|12000|10300|10300|FALSCH|0|12510|2210|800|0|0|1|0
14|3|3|1|46|22042013|14:41:00|2|33.WA(0,0,WA).avi|0,0,1|0|0|1|4500|11000|9500|9500|FALSCH|0|11943|2443|730|0|0|1|0
14|3|3|1|47|22042013|14:41:00|2|12.OS(1,0,WA).avi|1,0,0|1|0|0|1500|12000|7800|12000|FALSCH|0|16506|4506|788|0|0|1|0
14|3|3|1|48|22042013|14:41:00|2|10.BV(0,1,BV).avi|0,1,1|0|1|1|1500|12000|10300|10300|FALSCH|0|12342|2042|865|0|0|1|0
14|3|3|1|49|22042013|14:42:00|2|39.BV(0,0,BV).avi|0,0,1|0|0|1|2500|14500|15800|14500|FALSCH|0|17134|2634|1606|0|0|1|0
14|3|3|1|50|22042013|14:42:00|2|46.OS(0,0,OS).avi|0,0,1|0|0|1|2500|12500|12000|12000|FALSCH|0|22499|10499|1677|0|0|1|0
15|4|3|1|1|22042013|14:50:00|3|21.BV(0,1,OS).avi|0,1,0|0|1|0|3000|10500|10199|10199|FALSCH|0|13884|3685|15017|0|0|1|0
15|4|3|1|2|22042013|14:51:00|3|03.WA(1,1,BV).avi|1,1,0|1|1|0|2500|10500|8100|10500|WAHR|0|11126|626|15006|1|0|0|0
15|4|3|1|3|22042013|14:52:00|3|21.BV(0,1,OS).avi|0,1,0|0|1|0|3000|10500|10199|10199|FALSCH|0|11727|1528|15020|0|0|1|0
15|4|3|1|4|22042013|14:52:00|3|22.BV(1,0,OS).avi|1,0,0|1|0|0|2500|12000|10699|12000|FALSCH|0|15031|3031|15023|0|0|1|0
15|4|3|1|5|22042013|14:53:00|3|14.OS(1,0,OS).avi|1,0,1|1|0|1|1500|12000|7800|7800|WAHR|0|11735|3935|15022|1|0|0|0
15|4|3|1|6|22042013|14:53:00|3|43.OS(0,0,WA).avi|0,0,0|0|0|0|2500|12500|12000|12000|FALSCH|0|17510|5510|15008|0|0|1|0
15|4|3|1|7|22042013|14:54:00|3|34.WA(0,0,WA).avi|0,0,1|0|0|1|4500|11000|9500|9500|FALSCH|0|10935|1435|5833|0|0|1|0
15|4|3|1|8|22042013|14:54:00|3|31.WA(0,0,BV).avi|0,0,0|0|0|0|4500|11000|9500|9500|FALSCH|0|10046|546|1760|0|0|1|0
15|4|3|1|9|22042013|14:54:00|3|02.WA(1,0,BV).avi|1,0,0|1|0|0|3000|13500|10300|13500|WAHR|1|15399|1899|3102|0|0|0|1
15|4|3|1|10|22042013|14:55:00|3|47.OS(1,1,OS).avi|1,1,1|1|1|1|1500|11000|9800|9800|WAHR|0|11886|2086|3159|1|0|0|0
15|4|3|1|11|22042013|14:55:00|3|05.WA(0,1,WA).avi|0,1,1|0|1|1|3500|10500|10100|10100|FALSCH|0|9959|-141|734|0|0|1|0
15|4|3|1|12|22042013|14:55:00|3|01.WA(0,1,BV).avi|0,1,0|0|1|0|5000|11000|10000|10000|FALSCH|0|9846|-154|1083|0|0|1|0
15|4|3|1|13|22042013|14:55:00|3|20.WA(0,1,WA).avi|0,1,1|0|1|1|3500|10500|10100|10100|FALSCH|0|9638|-462|1139|0|0|1|0
15|4|3|1|14|22042013|14:56:00|3|06.BV(0,1,WA).avi|0,1,0|0|1|0|3000|10500|10199|10199|FALSCH|0|11263|1064|843|0|0|1|0
15|4|3|1|15|22042013|14:56:00|3|20.WA(0,1,WA).avi|0,1,1|0|1|1|3500|10500|10100|10100|FALSCH|0|10062|-38|1016|0|0|1|0
15|4|3|1|16|22042013|14:56:00|3|44.OS(0,0,BV).avi|0,0,0|0|0|0|2500|12500|12000|12000|FALSCH|0|16542|4542|2068|0|0|1|0
15|4|3|1|17|22042013|14:57:00|3|03.WA(1,1,BV).avi|1,1,0|1|1|0|2500|10500|8100|10500|WAHR|0|11391|891|2978|1|0|0|0
15|4|3|1|18|22042013|14:57:00|3|45.OS(0,0,OS).avi|0,0,1|0|0|1|2500|12500|12000|12000|FALSCH|0|16166|4166|1657|0|0|1|0
15|4|3|1|19|22042013|14:57:00|3|03.WA(1,1,BV).avi|1,1,0|1|1|0|2500|10500|8100|10500|FALSCH|1|12350|1850|1762|0|1|0|0
15|4|3|1|20|22042013|14:58:00|3|12.OS(1,0,WA).avi|1,0,0|1|0|0|1500|12000|7800|12000|WAHR|1|20158|8158|1925|0|0|0|1
15|4|3|1|21|22042013|14:58:00|3|23.BV(1,1,OS).avi|1,1,0|1|1|0|2500|11500|11500|11500|WAHR|0|12503|1003|1449|1|0|0|0
15|4|3|1|22|22042013|14:59:00|3|38.BV(0,0,OS).avi|0,0,0|0|0|0|2500|14500|15800|14500|FALSCH|0|16686|2186|11885|0|0|1|0
15|4|3|1|23|22042013|14:59:00|3|30.OS(0,1,OS).avi|0,1,1|0|1|1|1000|9000|7300|7300|FALSCH|0|8350|1050|1060|0|0|1|0
15|4|3|1|24|22042013|14:59:00|3|05.WA(0,1,WA).avi|0,1,1|0|1|1|3500|10500|10100|10100|FALSCH|0|10693|593|744|0|0|1|0
15|4|3|1|25|22042013|14:59:00|3|04.WA(1,0,WA).avi|1,0,1|1|0|1|3000|13500|10300|10300|WAHR|0|11934|1634|784|1|0|0|0
15|4|3|1|26|22042013|15:00:00|3|29.OS(1,0,OS).avi|1,0,1|1|0|1|1500|12000|7800|7800|FALSCH|1|15038|7238|1045|0|1|0|0
15|4|3|1|27|22042013|15:00:00|3|38.BV(0,0,OS).avi|0,0,0|0|0|0|2500|14500|15800|14500|FALSCH|0|11150|-3350|739|0|0|1|0
15|4|3|1|28|22042013|15:00:00|3|39.BV(0,0,BV).avi|0,0,1|0|0|1|2500|14500|15800|14500|FALSCH|0|5702|-8798|719|0|0|1|0
15|4|3|1|29|22042013|15:00:00|3|19.WA(1,0,WA).avi|1,0,1|1|0|1|3000|13500|10300|10300|WAHR|0|14711|4411|1384|1|0|0|0
15|4|3|1|30|22042013|15:01:00|3|14.OS(1,0,OS).avi|1,0,1|1|0|1|1500|12000|7800|7800|WAHR|0|9998|2198|698|1|0|0|0
15|4|3|1|31|22042013|15:01:00|3|06.BV(0,1,WA).avi|0,1,0|0|1|0|3000|10500|10199|10199|FALSCH|0|10638|439|858|0|0|1|0
15|4|3|1|32|22042013|15:01:00|3|39.BV(0,0,BV).avi|0,0,1|0|0|1|2500|14500|15800|14500|FALSCH|0|5406|-9094|735|0|0|1|0
15|4|3|1|33|22042013|15:01:00|3|46.OS(0,0,OS).avi|0,0,1|0|0|1|2500|12500|12000|12000|WAHR|1|14814|2814|802|0|0|0|1
15|4|3|1|34|22042013|15:02:00|3|41.BV(1,1,BV).avi|1,1,1|1|1|1|2500|11500|11500|11500|WAHR|0|12367|867|2064|1|0|0|0
15|4|3|1|35|22042013|15:02:00|3|40.BV(0,0,BV).avi|0,0,1|0|0|1|2500|14500|15800|14500|FALSCH|0|5990|-8510|681|0|0|1|0
15|4|3|1|36|22042013|15:02:00|3|12.OS(1,0,WA).avi|1,0,0|1|0|0|1500|12000|7800|12000|FALSCH|0|12687|687|9877|0|0|1|0
15|4|3|1|37|22042013|15:03:00|3|29.OS(1,0,OS).avi|1,0,1|1|0|1|1500|12000|7800|7800|WAHR|0|10796|2996|684|1|0|0|0
15|4|3|1|38|22042013|15:03:00|3|19.WA(1,0,WA).avi|1,0,1|1|0|1|3000|13500|10300|10300|WAHR|0|6918|-3382|679|1|0|0|0
15|4|3|1|39|22042013|15:03:00|3|07.BV(1,0,WA).avi|1,0,0|1|0|0|2500|12000|10699|12000|FALSCH|0|12966|966|876|0|0|1|0
15|4|3|1|40|22042013|15:03:00|3|36.WA(1,1,WA).avi|1,1,1|1|1|1|2500|10500|8100|8100|WAHR|0|9223|1123|623|1|0|0|0
15|4|3|1|41|22042013|15:03:00|3|13.OS(1,1,WA).avi|1,1,0|1|1|0|1500|11000|9800|11000|WAHR|0|11927|927|666|1|0|0|0
15|4|3|1|42|22042013|15:04:00|3|48.OS(1,1,OS).avi|1,1,1|1|1|1|1500|11000|9800|9800|WAHR|0|10798|998|665|1|0|0|0
15|4|3|1|43|22042013|15:04:00|3|27.OS(1,0,BV).avi|1,0,0|1|0|0|1500|12000|7800|12000|FALSCH|0|12695|695|737|0|0|1|0
15|4|3|1|44|22042013|15:04:00|3|33.WA(0,0,WA).avi|0,0,1|0|0|1|4500|11000|9500|9500|FALSCH|0|10134|634|941|0|0|1|0
15|4|3|1|45|22042013|15:05:00|3|03.WA(1,1,BV).avi|1,1,0|1|1|0|2500|10500|8100|10500|WAHR|0|11439|939|738|1|0|0|0
15|4|3|1|46|22042013|15:05:00|3|36.WA(1,1,WA).avi|1,1,1|1|1|1|2500|10500|8100|8100|WAHR|0|11086|2986|938|1|0|0|0
15|4|3|1|47|22042013|15:05:00|3|14.OS(1,0,OS).avi|1,0,1|1|0|1|1500|12000|7800|7800|WAHR|0|11078|3278|1052|1|0|0|0
15|4|3|1|48|22042013|15:05:00|3|02.WA(1,0,BV).avi|1,0,0|1|0|0|3000|13500|10300|13500|FALSCH|0|14518|1018|1566|0|0|1|0
15|4|3|1|49|22042013|15:06:00|3|08.BV(1,1,WA).avi|1,1,0|1|1|0|2500|11500|11500|11500|WAHR|0|13574|2074|954|1|0|0|0
15|4|3|1|50|22042013|15:06:00|3|03.WA(1,1,BV).avi|1,1,0|1|1|0|2500|10500|8100|10500|WAHR|0|11318|818|1832|1|0|0|0
15|4|3|1|51|22042013|15:06:00|3|12.OS(1,0,WA).avi|1,0,0|1|0|0|1500|12000|7800|12000|FALSCH|0|10878|-1122|1473|0|0|1|0
15|4|3|1|52|22042013|15:06:00|3|33.WA(0,0,WA).avi|0,0,1|0|0|1|4500|11000|9500|9500|FALSCH|0|10063|563|941|0|0|1|0
15|4|3|1|53|22042013|15:07:00|3|45.OS(0,0,OS).avi|0,0,1|0|0|1|2500|12500|12000|12000|FALSCH|0|14070|2070|4207|0|0|1|0
15|4|3|1|54|22042013|15:07:00|3|34.WA(0,0,WA).avi|0,0,1|0|0|1|4500|11000|9500|9500|WAHR|1|9911|411|2120|0|0|0|1
15|4|3|1|55|22042013|15:07:00|3|39.BV(0,0,BV).avi|0,0,1|0|0|1|2500|14500|15800|14500|FALSCH|0|11278|-3222|876|0|0|1|0
15|4|3|1|56|22042013|15:08:00|3|46.OS(0,0,OS).avi|0,0,1|0|0|1|2500|12500|12000|12000|FALSCH|0|13535|1535|743|0|0|1|0
15|4|3|1|57|22042013|15:08:00|3|39.BV(0,0,BV).avi|0,0,1|0|0|1|2500|14500|15800|14500|FALSCH|0|12598|-1902|810|0|0|1|0
15|4|3|1|58|22042013|15:08:00|3|45.OS(0,0,OS).avi|0,0,1|0|0|1|2500|12500|12000|12000|FALSCH|0|13631|1631|7794|0|0|1|0
15|4|3|1|59|22042013|15:09:00|3|34.WA(0,0,WA).avi|0,0,1|0|0|1|4500|11000|9500|9500|FALSCH|0|9990|490|944|0|0|1|0
16|3|3|1|1|22042013|15:08:00|1|13.OS(1,1,WA).avi|1,1,0|1|1|0|1500|11000|9800|11000|WAHR|0|12909|1909|7924|1|0|0|0
16|3|3|1|2|22042013|15:09:00|1|16.WA(0,1,OS).avi|0,1,0|0|1|0|5000|11000|10000|10000|FALSCH|0|12128|2128|2856|0|0|1|0
16|3|3|1|3|22042013|15:09:00|1|11.OS(0,1,WA).avi|0,1,0|0|1|0|1500|10000|7300|7300|FALSCH|0|9255|1955|2437|0|0|1|0
16|3|3|1|4|22042013|15:09:00|1|05.WA(0,1,WA).avi|0,1,1|0|1|1|3500|10500|10100|10100|FALSCH|0|10859|759|2393|0|0|1|0
16|3|3|1|5|22042013|15:10:00|1|25.BV(0,1,BV).avi|0,1,1|0|1|1|1500|12000|10300|10300|FALSCH|0|11496|1196|3032|0|0|1|0
16|3|3|1|6|22042013|15:10:00|1|29.OS(1,0,OS).avi|1,0,1|1|0|1|1500|12000|7800|7800|FALSCH|1|11272|3472|8132|0|1|0|0
16|3|3|1|7|22042013|15:10:00|1|42.BV(1,1,BV).avi|1,1,1|1|1|1|2500|11500|11500|11500|WAHR|0|12732|1232|8278|1|0|0|0
16|3|3|1|8|22042013|15:11:00|1|13.OS(1,1,WA).avi|1,1,0|1|1|0|1500|11000|9800|11000|WAHR|0|12599|1599|2929|1|0|0|0
16|3|3|1|9|22042013|15:11:00|1|04.WA(1,0,WA).avi|1,0,1|1|0|1|3000|13500|10300|10300|WAHR|0|10680|380|1268|1|0|0|0
16|3|3|1|10|22042013|15:11:00|1|21.BV(0,1,OS).avi|0,1,0|0|1|0|3000|10500|10199|10199|FALSCH|0|11362|1163|1597|0|0|1|0
16|3|3|1|11|22042013|15:12:00|1|47.OS(1,1,OS).avi|1,1,1|1|1|1|1500|11000|9800|9800|WAHR|0|11199|1399|1969|1|0|0|0
16|3|3|1|12|22042013|15:12:00|1|20.WA(0,1,WA).avi|0,1,1|0|1|1|3500|10500|10100|10100|FALSCH|0|9960|-140|3393|0|0|1|0
16|3|3|1|13|22042013|15:12:00|1|19.WA(1,0,WA).avi|1,0,1|1|0|1|3000|13500|10300|10300|WAHR|0|10613|313|1982|1|0|0|0
16|3|3|1|14|22042013|15:12:00|1|09.BV(1,0,BV).avi|1,0,1|1|0|1|2500|12000|10699|10699|WAHR|0|12480|1781|942|1|0|0|0
16|3|3|1|15|22042013|15:13:00|1|41.BV(1,1,BV).avi|1,1,1|1|1|1|2500|11500|11500|11500|WAHR|0|12624|1124|1242|1|0|0|0
16|3|3|1|16|22042013|15:13:00|1|45.OS(0,0,OS).avi|0,0,1|0|0|1|2500|12500|12000|12000|WAHR|1|13404|1404|2738|0|0|0|1
16|3|3|1|17|22042013|15:13:00|1|32.WA(0,0,OS).avi|0,0,0|0|0|0|4500|11000|9500|9500|FALSCH|0|10172|672|1985|0|0|1|0
16|3|3|1|18|22042013|15:14:00|1|01.WA(0,1,BV).avi|0,1,0|0|1|0|5000|11000|10000|10000|FALSCH|0|10479|479|1684|0|0|1|0
16|3|3|1|19|22042013|15:14:00|1|40.BV(0,0,BV).avi|0,0,1|0|0|1|2500|14500|15800|14500|FALSCH|0|16927|2427|1563|0|0|1|0
16|3|3|1|20|22042013|15:14:00|1|20.WA(0,1,WA).avi|0,1,1|0|1|1|3500|10500|10100|10100|FALSCH|0|10456|356|1132|0|0|1|0
16|3|3|1|21|22042013|15:14:00|1|30.OS(0,1,OS).avi|0,1,1|0|1|1|1000|9000|7300|7300|FALSCH|0|8887|1587|1589|0|0|1|0
16|3|3|1|22|22042013|15:15:00|1|16.WA(0,1,OS).avi|0,1,0|0|1|0|5000|11000|10000|10000|FALSCH|0|10600|600|1132|0|0|1|0
16|3|3|1|23|22042013|15:15:00|1|24.BV(1,0,BV).avi|1,0,1|1|0|1|2500|12000|10699|10699|WAHR|0|12109|1410|1310|1|0|0|0
16|3|3|1|24|22042013|15:15:00|1|32.WA(0,0,OS).avi|0,0,0|0|0|0|4500|11000|9500|9500|FALSCH|0|10232|732|2452|0|0|1|0
16|3|3|1|25|22042013|15:16:00|1|41.BV(1,1,BV).avi|1,1,1|1|1|1|2500|11500|11500|11500|WAHR|0|12807|1307|949|1|0|0|0
16|3|3|1|26|22042013|15:16:00|1|04.WA(1,0,WA).avi|1,0,1|1|0|1|3000|13500|10300|10300|WAHR|0|11797|1497|1667|1|0|0|0
16|3|3|1|27|22042013|15:16:00|1|18.WA(1,1,OS).avi|1,1,0|1|1|0|2500|10500|8100|10500|FALSCH|1|12815|2315|3554|0|1|0|0
16|3|3|1|28|22042013|15:16:00|1|35.WA(1,1,WA).avi|1,1,1|1|1|1|2000|10500|8100|8100|WAHR|0|10223|2123|969|1|0|0|0
16|3|3|1|29|22042013|15:17:00|1|18.WA(1,1,OS).avi|1,1,0|1|1|0|2500|10500|8100|10500|WAHR|0|13063|2563|986|1|0|0|0
16|3|3|1|30|22042013|15:17:00|1|37.BV(0,0,WA).avi|0,0,0|0|0|0|2500|14500|15800|14500|FALSCH|0|17052|2552|3588|0|0|1|0
16|3|3|1|31|22042013|15:18:00|1|08.BV(1,1,WA).avi|1,1,0|1|1|0|2500|11500|11500|11500|WAHR|0|13839|2339|5221|1|0|0|0
16|3|3|1|32|22042013|15:18:00|1|39.BV(0,0,BV).avi|0,0,1|0|0|1|2500|14500|15800|14500|FALSCH|0|17119|2619|1180|0|0|1|0
16|3|3|1|33|22042013|15:18:00|1|02.WA(1,0,BV).avi|1,0,0|1|0|0|3000|13500|10300|13500|FALSCH|0|14360|860|2996|0|0|1|0
16|3|3|1|34|22042013|15:19:00|1|22.BV(1,0,OS).avi|1,0,0|1|0|0|2500|12000|10699|12000|FALSCH|0|13118|1118|1317|0|0|1|0
16|3|3|1|35|22042013|15:19:00|1|07.BV(1,0,WA).avi|1,0,0|1|0|0|2500|12000|10699|12000|FALSCH|0|12207|207|1015|0|0|1|0
16|3|3|1|36|22042013|15:19:00|1|44.OS(0,0,BV).avi|0,0,0|0|0|0|2500|12500|12000|12000|FALSCH|0|13455|1455|1809|0|0|1|0
16|3|3|1|37|22042013|15:20:00|1|43.OS(0,0,WA).avi|0,0,0|0|0|0|2500|12500|12000|12000|FALSCH|0|13127|1127|2119|0|0|1|0
16|3|3|1|38|22042013|15:20:00|1|39.BV(0,0,BV).avi|0,0,1|0|0|1|2500|14500|15800|14500|FALSCH|0|17126|2626|2710|0|0|1|0
16|3|3|1|39|22042013|15:20:00|1|03.WA(1,1,BV).avi|1,1,0|1|1|0|2500|10500|8100|10500|WAHR|0|12912|2412|2107|1|0|0|0
16|3|3|1|40|22042013|15:21:00|1|39.BV(0,0,BV).avi|0,0,1|0|0|1|2500|14500|15800|14500|FALSCH|0|17159|2659|15001|0|0|1|0
16|3|3|1|41|22042013|15:21:00|1|33.WA(0,0,WA).avi|0,0,1|0|0|1|4500|11000|9500|9500|FALSCH|0|10471|971|2360|0|0|1|0
16|3|3|1|42|22042013|15:21:00|1|12.OS(1,0,WA).avi|1,0,0|1|0|0|1500|12000|7800|12000|FALSCH|0|11399|-601|2177|0|0|1|0
16|3|3|1|43|22042013|15:22:00|1|07.BV(1,0,WA).avi|1,0,0|1|0|0|2500|12000|10699|12000|FALSCH|0|12615|615|2300|0|0|1|0
16|3|3|1|44|22042013|15:22:00|1|13.OS(1,1,WA).avi|1,1,0|1|1|0|1500|11000|9800|11000|WAHR|0|12839|1839|2466|1|0|0|0
16|3|3|1|45|22042013|15:22:00|1|23.BV(1,1,OS).avi|1,1,0|1|1|0|2500|11500|11500|11500|WAHR|0|13271|1771|2174|1|0|0|0
18|0|1|1|1|22042013|16:46:00|3|42.BV(1,1,BV).avi|1,1,1|1|1|1|2500|11500|11500|11500|WAHR|0|13649|2149|15018|1|0|0|0
18|0|1|1|2|22042013|16:47:00|3|01.WA(0,1,BV).avi|0,1,0|0|1|0|5000|11000|10000|10000|FALSCH|0|15023|5023|6374|0|0|1|0
18|0|1|1|3|22042013|16:48:00|3|29.OS(1,0,OS).avi|1,0,1|1|0|1|1500|12000|7800|7800|FALSCH|1|22588|14788|1406|0|1|0|0
18|0|1|1|4|22042013|16:48:00|3|01.WA(0,1,BV).avi|0,1,0|0|1|0|5000|11000|10000|10000|FALSCH|0|11558|1558|1055|0|0|1|0
18|0|1|1|5|22042013|16:48:00|3|22.BV(1,0,OS).avi|1,0,0|1|0|0|2500|12000|10699|12000|WAHR|1|12473|473|4307|0|0|0|1
18|0|1|1|6|22042013|16:49:00|3|44.OS(0,0,BV).avi|0,0,0|0|0|0|2500|12500|12000|12000|FALSCH|0|19394|7394|1127|0|0|1|0
18|0|1|1|7|22042013|16:49:00|3|24.BV(1,0,BV).avi|1,0,1|1|0|1|2500|12000|10699|10699|WAHR|0|14150|3451|566|1|0|0|0
18|0|1|1|8|22042013|16:49:00|3|11.OS(0,1,WA).avi|0,1,0|0|1|0|1500|10000|7300|7300|FALSCH|0|10661|3361|655|0|0|1|0
18|0|1|1|9|22042013|16:49:00|3|33.WA(0,0,WA).avi|0,0,1|0|0|1|4500|11000|9500|9500|WAHR|1|12492|2992|1252|0|0|0|1
18|0|1|1|10|22042013|16:50:00|3|26.OS(0,1,BV).avi|0,1,0|0|1|0|1500|10000|7300|7300|WAHR|1|12074|4774|711|0|0|0|1
18|0|1|1|11|22042013|16:50:00|3|33.WA(0,0,WA).avi|0,0,1|0|0|1|4500|11000|9500|9500|FALSCH|0|11321|1821|1018|0|0|1|0
18|0|1|1|12|22042013|16:51:00|3|17.WA(1,0,OS).avi|1,0,0|1|0|0|3000|13500|10300|13500|WAHR|1|13223|-277|3593|0|0|0|1
18|0|1|1|13|22042013|16:51:00|3|03.WA(1,1,BV).avi|1,1,0|1|1|0|2500|10500|8100|10500|WAHR|0|12734|2234|646|1|0|0|0
18|0|1|1|14|22042013|16:51:00|3|08.BV(1,1,WA).avi|1,1,0|1|1|0|2500|11500|11500|11500|WAHR|0|15340|3840|4453|1|0|0|0
18|0|1|1|15|22042013|16:52:00|3|33.WA(0,0,WA).avi|0,0,1|0|0|1|4500|11000|9500|9500|FALSCH|0|11450|1950|787|0|0|1|0
18|0|1|1|16|22042013|16:52:00|3|24.BV(1,0,BV).avi|1,0,1|1|0|1|2500|12000|10699|10699|WAHR|0|11851|1152|904|1|0|0|0
18|0|1|1|17|22042013|16:52:00|3|38.BV(0,0,OS).avi|0,0,0|0|0|0|2500|14500|15800|14500|FALSCH|0|16948|2448|943|0|0|1|0
18|0|1|1|18|22042013|16:53:00|3|20.WA(0,1,WA).avi|0,1,1|0|1|1|3500|10500|10100|10100|WAHR|1|14766|4666|176|0|0|0|1
18|0|1|1|19|22042013|16:53:00|3|16.WA(0,1,OS).avi|0,1,0|0|1|0|5000|11000|10000|10000|FALSCH|0|12972|2972|1999|0|0|1|0
18|0|1|1|20|22042013|16:53:00|3|01.WA(0,1,BV).avi|0,1,0|0|1|0|5000|11000|10000|10000|FALSCH|0|12492|2492|772|0|0|1|0
18|0|1|1|21|22042013|16:54:00|3|40.BV(0,0,BV).avi|0,0,1|0|0|1|2500|14500|15800|14500|FALSCH|0|17225|2725|604|0|0|1|0
18|0|1|1|22|22042013|16:54:00|3|23.BV(1,1,OS).avi|1,1,0|1|1|0|2500|11500|11500|11500|WAHR|0|16201|4701|817|1|0|0|0
18|0|1|1|23|22042013|16:54:00|3|09.BV(1,0,BV).avi|1,0,1|1|0|1|2500|12000|10699|10699|FALSCH|1|14187|3488|6004|0|1|0|0
18|0|1|1|24|22042013|16:55:00|3|39.BV(0,0,BV).avi|0,0,1|0|0|1|2500|14500|15800|14500|FALSCH|0|17128|2628|1593|0|0|1|0
18|0|1|1|25|22042013|16:55:00|3|21.BV(0,1,OS).avi|0,1,0|0|1|0|3000|10500|10199|10199|WAHR|1|16505|6306|8192|0|0|0|1
18|0|1|1|26|22042013|16:56:00|3|11.OS(0,1,WA).avi|0,1,0|0|1|0|1500|10000|7300|7300|FALSCH|0|12111|4811|2534|0|0|1|0
18|0|1|1|27|22042013|16:56:00|3|42.BV(1,1,BV).avi|1,1,1|1|1|1|2500|11500|11500|11500|WAHR|0|15325|3825|938|1|0|0|0
18|0|1|1|28|22042013|16:56:00|3|29.OS(1,0,OS).avi|1,0,1|1|0|1|1500|12000|7800|7800|FALSCH|1|13190|5390|1026|0|1|0|0
18|0|1|1|29|22042013|16:57:00|3|09.BV(1,0,BV).avi|1,0,1|1|0|1|2500|12000|10699|10699|FALSCH|1|14277|3578|1235|0|1|0|0
18|0|1|1|30|22042013|16:57:00|3|02.WA(1,0,BV).avi|1,0,0|1|0|0|3000|13500|10300|13500|FALSCH|0|13501|1|1611|0|0|1|0
18|0|1|1|31|22042013|16:57:00|3|46.OS(0,0,OS).avi|0,0,1|0|0|1|2500|12500|12000|12000|WAHR|1|14749|2749|1365|0|0|0|1
18|0|1|1|32|22042013|16:58:00|3|02.WA(1,0,BV).avi|1,0,0|1|0|0|3000|13500|10300|13500|FALSCH|0|12800|-700|2559|0|0|1|0
18|0|1|1|33|22042013|16:58:00|3|30.OS(0,1,OS).avi|0,1,1|0|1|1|1000|9000|7300|7300|FALSCH|0|10399|3099|1086|0|0|1|0
18|0|1|1|34|22042013|16:58:00|3|34.WA(0,0,WA).avi|0,0,1|0|0|1|4500|11000|9500|9500|FALSCH|0|11608|2108|966|0|0|1|0
18|0|1|1|35|22042013|16:59:00|3|08.BV(1,1,WA).avi|1,1,0|1|1|0|2500|11500|11500|11500|FALSCH|1|14879|3379|921|0|1|0|0
18|0|1|1|36|22042013|16:59:00|3|22.BV(1,0,OS).avi|1,0,0|1|0|0|2500|12000|10699|12000|FALSCH|0|12216|216|892|0|0|1|0
18|0|1|1|37|22042013|16:59:00|3|45.OS(0,0,OS).avi|0,0,1|0|0|1|2500|12500|12000|12000|FALSCH|0|14739|2739|960|0|0|1|0
18|0|1|1|38|22042013|17:00:00|3|14.OS(1,0,OS).avi|1,0,1|1|0|1|1500|12000|7800|7800|FALSCH|1|11759|3959|774|0|1|0|0
18|0|1|1|39|22042013|17:00:00|3|28.OS(1,1,BV).avi|1,1,0|1|1|0|1500|11000|9800|11000|FALSCH|1|12645|1645|1092|0|1|0|0
18|0|1|1|40|22042013|17:00:00|3|27.OS(1,0,BV).avi|1,0,0|1|0|0|1500|12000|7800|12000|FALSCH|0|11919|-81|1361|0|0|1|0
18|0|1|1|41|22042013|17:00:00|3|30.OS(0,1,OS).avi|0,1,1|0|1|1|1000|9000|7300|7300|FALSCH|0|8733|1433|931|0|0|1|0
18|0|1|1|42|22042013|17:01:00|3|25.BV(0,1,BV).avi|0,1,1|0|1|1|1500|12000|10300|10300|FALSCH|0|11358|1058|1694|0|0|1|0
18|0|1|1|43|22042013|17:01:00|3|36.WA(1,1,WA).avi|1,1,1|1|1|1|2500|10500|8100|8100|WAHR|0|12883|4783|900|1|0|0|0
18|0|1|1|44|22042013|17:01:00|3|46.OS(0,0,OS).avi|0,0,1|0|0|1|2500|12500|12000|12000|FALSCH|0|16098|4098|2094|0|0|1|0
18|0|1|1|45|22042013|17:02:00|3|19.WA(1,0,WA).avi|1,0,1|1|0|1|3000|13500|10300|10300|WAHR|0|14612|4312|1110|1|0|0|0
18|0|1|1|46|22042013|17:02:00|3|12.OS(1,0,WA).avi|1,0,0|1|0|0|1500|12000|7800|12000|WAHR|1|12185|185|2364|0|0|0|1
18|0|1|1|47|22042013|17:02:00|3|03.WA(1,1,BV).avi|1,1,0|1|1|0|2500|10500|8100|10500|WAHR|0|12490|1990|1159|1|0|0|0
18|0|1|1|48|22042013|17:03:00|3|38.BV(0,0,OS).avi|0,0,0|0|0|0|2500|14500|15800|14500|FALSCH|0|16783|2283|999|0|0|1|0
18|0|1|1|49|22042013|17:03:00|3|40.BV(0,0,BV).avi|0,0,1|0|0|1|2500|14500|15800|14500|FALSCH|0|16812|2312|1536|0|0|1|0
18|0|1|1|50|22042013|17:03:00|3|11.OS(0,1,WA).avi|0,1,0|0|1|0|1500|10000|7300|7300|FALSCH|0|9385|2085|1001|0|0|1|0
18|0|1|1|51|22042013|17:04:00|3|31.WA(0,0,BV).avi|0,0,0|0|0|0|4500|11000|9500|9500|FALSCH|0|10390|890|998|0|0|1|0
18|0|1|1|52|22042013|17:04:00|3|17.WA(1,0,OS).avi|1,0,0|1|0|0|3000|13500|10300|13500|FALSCH|0|13210|-290|1239|0|0|1|0
18|0|1|1|53|22042013|17:04:00|3|04.WA(1,0,WA).avi|1,0,1|1|0|1|3000|13500|10300|10300|WAHR|0|13096|2796|1057|1|0|0|0
18|0|1|1|54|22042013|17:04:00|3|34.WA(0,0,WA).avi|0,0,1|0|0|1|4500|11000|9500|9500|FALSCH|0|11800|2300|815|0|0|1|0
18|0|1|1|55|22042013|17:05:00|3|41.BV(1,1,BV).avi|1,1,1|1|1|1|2500|11500|11500|11500|WAHR|0|13879|2379|1093|1|0|0|0
18|0|1|1|56|22042013|17:05:00|3|47.OS(1,1,OS).avi|1,1,1|1|1|1|1500|11000|9800|9800|WAHR|0|12490|2690|929|1|0|0|0
18|0|1|1|57|22042013|17:05:00|3|22.BV(1,0,OS).avi|1,0,0|1|0|0|2500|12000|10699|12000|FALSCH|0|14224|2224|980|0|0|1|0
18|0|1|1|58|22042013|17:06:00|3|16.WA(0,1,OS).avi|0,1,0|0|1|0|5000|11000|10000|10000|FALSCH|0|11361|1361|3799|0|0|1|0
18|0|1|1|59|22042013|17:06:00|3|43.OS(0,0,WA).avi|0,0,0|0|0|0|2500|12500|12000|12000|FALSCH|0|13665|1665|843|0|0|1|0
18|0|1|1|60|22042013|17:06:00|3|16.WA(0,1,OS).avi|0,1,0|0|1|0|5000|11000|10000|10000|FALSCH|0|11033|1033|857|0|0|1|0
18|0|1|1|61|22042013|17:07:00|3|09.BV(1,0,BV).avi|1,0,1|1|0|1|2500|12000|10699|10699|FALSCH|1|13803|3104|1003|0|1|0|0
18|0|1|1|62|22042013|17:07:00|3|04.WA(1,0,WA).avi|1,0,1|1|0|1|3000|13500|10300|10300|FALSCH|1|13556|3256|826|0|1|0|0
18|0|1|1|63|22042013|17:07:00|3|02.WA(1,0,BV).avi|1,0,0|1|0|0|3000|13500|10300|13500|FALSCH|0|13090|-410|1071|0|0|1|0
18|0|1|1|64|22042013|17:08:00|3|06.BV(0,1,WA).avi|0,1,0|0|1|0|3000|10500|10199|10199|FALSCH|0|12082|1883|868|0|0|1|0
18|0|1|1|65|22042013|17:08:00|3|29.OS(1,0,OS).avi|1,0,1|1|0|1|1500|12000|7800|7800|FALSCH|1|12264|4464|879|0|1|0|0
18|0|1|1|66|22042013|17:08:00|3|19.WA(1,0,WA).avi|1,0,1|1|0|1|3000|13500|10300|10300|FALSCH|1|12619|2319|810|0|1|0|0
18|0|1|1|67|22042013|17:08:00|3|03.WA(1,1,BV).avi|1,1,0|1|1|0|2500|10500|8100|10500|FALSCH|1|11012|512|751|0|1|0|0
18|0|1|1|68|22042013|17:09:00|3|10.BV(0,1,BV).avi|0,1,1|0|1|1|1500|12000|10300|10300|FALSCH|0|12343|2043|2130|0|0|1|0
18|0|1|1|69|22042013|17:09:00|3|24.BV(1,0,BV).avi|1,0,1|1|0|1|2500|12000|10699|10699|WAHR|0|17772|7073|861|1|0|0|0
18|0|1|1|70|22042013|17:09:00|3|10.BV(0,1,BV).avi|0,1,1|0|1|1|1500|12000|10300|10300|FALSCH|0|12156|1856|812|0|0|1|0
18|0|1|1|71|22042013|17:10:00|3|02.WA(1,0,BV).avi|1,0,0|1|0|0|3000|13500|10300|13500|FALSCH|0|13521|21|1019|0|0|1|0
18|0|1|1|72|22042013|17:10:00|3|22.BV(1,0,OS).avi|1,0,0|1|0|0|2500|12000|10699|12000|FALSCH|0|14394|2394|846|0|0|1|0
18|0|1|1|73|22042013|17:10:00|3|19.WA(1,0,WA).avi|1,0,1|1|0|1|3000|13500|10300|10300|WAHR|0|13048|2748|838|1|0|0|0
18|0|1|1|74|22042013|17:11:00|3|28.OS(1,1,BV).avi|1,1,0|1|1|0|1500|11000|9800|11000|WAHR|0|14013|3013|909|1|0|0|0
18|0|1|1|75|22042013|17:11:00|3|08.BV(1,1,WA).avi|1,1,0|1|1|0|2500|11500|11500|11500|WAHR|0|15350|3850|1124|1|0|0|0
18|0|1|1|76|22042013|17:11:00|3|09.BV(1,0,BV).avi|1,0,1|1|0|1|2500|12000|10699|10699|WAHR|0|13891|3192|857|1|0|0|0
18|0|1|1|77|22042013|17:12:00|3|28.OS(1,1,BV).avi|1,1,0|1|1|0|1500|11000|9800|11000|WAHR|0|12696|1696|890|1|0|0|0
18|0|1|1|78|22042013|17:12:00|3|13.OS(1,1,WA).avi|1,1,0|1|1|0|1500|11000|9800|11000|WAHR|0|12218|1218|775|1|0|0|0
18|0|1|1|79|22042013|17:12:00|3|03.WA(1,1,BV).avi|1,1,0|1|1|0|2500|10500|8100|10500|WAHR|0|11616|1116|840|1|0|0|0
18|0|1|1|80|22042013|17:12:00|3|19.WA(1,0,WA).avi|1,0,1|1|0|1|3000|13500|10300|10300|WAHR|0|13089|2789|720|1|0|0|0
18|0|1|1|81|22042013|17:13:00|3|29.OS(1,0,OS).avi|1,0,1|1|0|1|1500|12000|7800|7800|WAHR|0|11292|3492|705|1|0|0|0
19|0|1|1|1|22042013|17:08:00|1|06.BV(0,1,WA).avi|0,1,0|0|1|0|3000|10500|10199|10199|FALSCH|0|12821|2622|15011|0|0|1|0
19|0|1|1|2|22042013|17:08:00|1|41.BV(1,1,BV).avi|1,1,1|1|1|1|2500|11500|11500|11500|WAHR|0|10877|-623|8108|1|0|0|0
19|0|1|1|3|22042013|17:09:00|1|27.OS(1,0,BV).avi|1,0,0|1|0|0|1500|12000|7800|12000|WAHR|1|10234|-1766|8466|0|0|0|1
19|0|1|1|4|22042013|17:09:00|1|25.BV(0,1,BV).avi|0,1,1|0|1|1|1500|12000|10300|10300|WAHR|1|12018|1718|5127|0|0|0|1
19|0|1|1|5|22042013|17:10:00|1|03.WA(1,1,BV).avi|1,1,0|1|1|0|2500|10500|8100|10500|FALSCH|1|13427|2927|15004|0|1|0|0
19|0|1|1|6|22042013|17:11:00|1|09.BV(1,0,BV).avi|1,0,1|1|0|1|2500|12000|10699|10699|WAHR|0|26811|16112|10852|1|0|0|0
19|0|1|1|7|22042013|17:11:00|1|26.OS(0,1,BV).avi|0,1,0|0|1|0|1500|10000|7300|7300|FALSCH|0|10858|3558|6329|0|0|1|0
19|0|1|1|8|22042013|17:12:00|1|36.WA(1,1,WA).avi|1,1,1|1|1|1|2500|10500|8100|8100|WAHR|0|13370|5270|3569|1|0|0|0
19|0|1|1|9|22042013|17:12:00|1|02.WA(1,0,BV).avi|1,0,0|1|0|0|3000|13500|10300|13500|FALSCH|0|19442|5942|6193|0|0|1|0
19|0|1|1|10|22042013|17:13:00|1|09.BV(1,0,BV).avi|1,0,1|1|0|1|2500|12000|10699|10699|WAHR|0|19475|8776|12174|1|0|0|0
19|0|1|1|11|22042013|17:13:00|1|48.OS(1,1,OS).avi|1,1,1|1|1|1|1500|11000|9800|9800|WAHR|0|12393|2593|4556|1|0|0|0
19|0|1|1|12|22042013|17:13:00|1|36.WA(1,1,WA).avi|1,1,1|1|1|1|2500|10500|8100|8100|WAHR|0|11578|3478|3293|1|0|0|0
19|0|1|1|13|22042013|17:14:00|1|32.WA(0,0,OS).avi|0,0,0|0|0|0|4500|11000|9500|9500|FALSCH|0|13721|4221|2392|0|0|1|0
19|0|1|1|14|22042013|17:14:00|1|41.BV(1,1,BV).avi|1,1,1|1|1|1|2500|11500|11500|11500|WAHR|0|12962|1462|2757|1|0|0|0
19|0|1|1|15|22042013|17:15:00|1|34.WA(0,0,WA).avi|0,0,1|0|0|1|4500|11000|9500|9500|FALSCH|0|11822|2322|15005|0|0|1|0
19|0|1|1|16|22042013|17:15:00|1|11.OS(0,1,WA).avi|0,1,0|0|1|0|1500|10000|7300|7300|FALSCH|0|9546|2246|2651|0|0|1|0
19|0|1|1|17|22042013|17:15:00|1|19.WA(1,0,WA).avi|1,0,1|1|0|1|3000|13500|10300|10300|WAHR|0|18026|7726|10067|1|0|0|0
19|0|1|1|18|22042013|17:16:00|1|28.OS(1,1,BV).avi|1,1,0|1|1|0|1500|11000|9800|11000|WAHR|0|11505|505|8040|1|0|0|0
19|0|1|1|19|22042013|17:16:00|1|19.WA(1,0,WA).avi|1,0,1|1|0|1|3000|13500|10300|10300|WAHR|0|18442|8142|5976|1|0|0|0
19|0|1|1|20|22042013|17:17:00|1|13.OS(1,1,WA).avi|1,1,0|1|1|0|1500|11000|9800|11000|WAHR|0|11978|978|4990|1|0|0|0
19|0|1|1|21|22042013|17:17:00|1|38.BV(0,0,OS).avi|0,0,0|0|0|0|2500|14500|15800|14500|FALSCH|0|15947|1447|7241|0|0|1|0
